time,ax,ay,az
0.000000000000000000e+00,6.181770630467365723e-16,0.000000000000000000e+00,9.312305292807749879e+00,0.000000000000000000e+00,8.860066646475888774e+01
3.474967104832994095e-03,6.153904260167545863e-16,3.474967104832994095e-03,9.270327004846791397e+00,3.474967104832994095e-03,8.820126973393402636e+01
6.949934209665988190e-03,6.126017918038366682e-16,6.949934209665988190e-03,9.228318631044190923e+00,6.949934209665988190e-03,8.780158675544687696e+01
1.389986841933197638e-02,6.070196063006165923e-16,1.389986841933197638e-02,9.144227811901100011e+00,1.389986841933197638e-02,8.700151605486537676e+01
2.084980262899796544e-02,6.014303725794137643e-16,2.084980262899796544e-02,9.060030817421603544e+00,2.084980262899796544e-02,8.620043516343729095e+01
2.779973683866395276e-02,5.958341495146389342e-16,2.779973683866395276e-02,8.975728534498021105e+00,2.779973683866395276e-02,8.539835251937934402e+01
6.885873766719700917e-02,5.588377017798021835e-16,6.885873766719700917e-02,8.418408898020084408e+00,6.885873766719700917e-02,8.009581038043342005e+01
1.099177384957300690e-01,5.177746007028786069e-16,1.099177384957300690e-01,7.799828629750208187e+00,1.099177384957300690e-01,7.421041226392303258e+01
1.409498014945446964e-01,4.881551818957078039e-16,1.409498014945446964e-01,7.353637583501290820e+00,1.409498014945446964e-01,6.996518803369994544e+01
1.719818644933593377e-01,4.622434831421967311e-16,1.719818644933593377e-01,6.963300148044359261e+00,1.719818644933593377e-01,6.625137541263612206e+01
2.030139274921739789e-01,4.384479106571894560e-16,2.030139274921739789e-01,6.604840333140534092e+00,2.030139274921739789e-01,6.284085809144794865e+01
2.340459904909886202e-01,4.205427548544411341e-16,2.340459904909886202e-01,6.335114574749083793e+00,2.340459904909886202e-01,6.027458892342010444e+01
2.650780534898032337e-01,4.055763143018001652e-16,2.650780534898032337e-01,6.109658031787194687e+00,2.650780534898032337e-01,5.812951320509159814e+01
2.961101164886178472e-01,3.937413841908969353e-16,2.961101164886178472e-01,5.931374997847706609e+00,2.961101164886178472e-01,5.643326344418677820e+01
3.271421794874324607e-01,3.860781748737638524e-16,3.271421794874324607e-01,5.815935346411728268e+00,3.271421794874324607e-01,5.533492852795646399e+01
3.663713285588237056e-01,3.788117629519576061e-16,3.663713285588237056e-01,5.706473106150572683e+00,3.663713285588237056e-01,5.429346488013614902e+01
4.056004776302149506e-01,3.742392342957901144e-16,4.056004776302149506e-01,5.637591898238262011e+00,4.056004776302149506e-01,5.363810396401134994e+01
4.448296267016061956e-01,3.717725638151223967e-16,4.448296267016061956e-01,5.600433630897311055e+00,4.448296267016061956e-01,5.328456666604210312e+01
4.840587757729974405e-01,3.705145237333414799e-16,4.840587757729974405e-01,5.581482340057768887e+00,4.840587757729974405e-01,5.310425717811673252e+01
5.202431661066398982e-01,3.699131967030727414e-16,5.202431661066398982e-01,5.572423866003294535e+00,5.202431661066398982e-01,5.301807155456334186e+01
5.236781738800807551e-01,3.677067318896187764e-01,5.236781738800807551e-01,6.639839272407266790e+00,5.236781738800807551e-01,5.290709167771536414e+01
5.271131816535216119e-01,3.692327653206109450e-01,5.271131816535216119e-01,6.639240132612584944e+00,5.271131816535216119e-01,5.290307318054085783e+01
5.339831972004033256e-01,3.718514000094210736e-01,5.339831972004033256e-01,6.637982943924125578e+00,5.339831972004033256e-01,5.289513582873860287e+01
5.408532127472850393e-01,3.736009824118998734e-01,5.408532127472850393e-01,6.636603646137714918e+00,5.408532127472850393e-01,5.288727113720469220e+01
5.477232282941667529e-01,3.744724461865553966e-01,5.477232282941667529e-01,6.635084622110358765e+00,5.477232282941667529e-01,5.287930547282152105e+01
6.066565112166760754e-01,3.445895967497332180e-01,6.066565112166760754e-01,6.626098900773250477e+00,6.066565112166760754e-01,5.289887898183678772e+01
6.655897941391853978e-01,2.437837787533158884e-01,6.655897941391853978e-01,6.613790714838206242e+00,6.655897941391853978e-01,5.297123231749271355e+01
7.245230770616947202e-01,6.727787533379669949e-02,7.245230770616947202e-01,6.595896692733559163e+00,7.245230770616947202e-01,5.306642981931705805e+01
7.834563599842040427e-01,-1.882973328067729657e-01,7.834563599842040427e-01,6.572327341487745223e+00,7.834563599842040427e-01,5.317150884650496323e+01
8.558993359490824071e-01,-6.128318804533892106e-01,8.558993359490824071e-01,6.537095499467501014e+00,8.558993359490824071e-01,5.330482657036390037e+01
9.283423119139607715e-01,-1.156122200224254826e+00,9.283423119139607715e-01,6.498119808948362497e+00,9.283423119139607715e-01,5.343607190097603876e+01
1.000785287878839025e+00,-1.808073125432815509e+00,1.000785287878839025e+00,6.459808798392375095e+00,1.000785287878839025e+00,5.355969341546873608e+01
1.073228263843717389e+00,-2.549929533908218193e+00,1.073228263843717389e+00,6.427479931317757966e+00,1.073228263843717389e+00,5.367111208865159711e+01
1.145671239808595754e+00,-3.353513896562890118e+00,1.145671239808595754e+00,6.407300284070279517e+00,1.145671239808595754e+00,5.376883593814051920e+01
1.164394429109016027e+00,-3.566808976294107758e+00,1.164394429109016027e+00,6.404846065462146854e+00,1.164394429109016027e+00,5.379176067395297167e+01
1.183117618409436300e+00,-3.780991331093362273e+00,1.183117618409436300e+00,6.403738114731263309e+00,1.183117618409436300e+00,5.381371956480064256e+01
1.201840807709856573e+00,-3.995272834880676527e+00,1.201840807709856573e+00,6.404079742059976432e+00,1.201840807709856573e+00,5.383469867575875867e+01
1.220563997010276847e+00,-4.208829060179950510e+00,1.220563997010276847e+00,6.405972575118777712e+00,1.220563997010276847e+00,5.385470029572339001e+01
1.251343719481746719e+00,-4.556083204254894881e+00,1.251343719481746719e+00,6.412749290277431236e+00,1.251343719481746719e+00,5.388588099805654963e+01
1.282123441953216592e+00,-4.895132096417910361e+00,1.282123441953216592e+00,6.424415412460264818e+00,1.282123441953216592e+00,5.391485246263209774e+01
1.312903164424686464e+00,-5.221944621364574601e+00,1.312903164424686464e+00,6.441418085728983556e+00,1.312903164424686464e+00,5.394263577197803983e+01
1.343682886896156337e+00,-5.532350391888784635e+00,1.343682886896156337e+00,6.464064693996256494e+00,1.343682886896156337e+00,5.396950623773634703e+01
1.361840086987531562e+00,-5.706013878675758377e+00,1.361840086987531562e+00,6.480179261365464960e+00,1.361840086987531562e+00,5.398514062582940198e+01
1.379997287078906787e+00,-5.871667520157203057e+00,1.379997287078906787e+00,6.498384798832768539e+00,1.379997287078906787e+00,5.400072952797398784e+01
1.398154487170282012e+00,-6.028472970236030903e+00,1.398154487170282012e+00,6.518703657556879527e+00,1.398154487170282012e+00,5.401632847525855396e+01
1.444254797351483210e+00,-6.381815748541882272e+00,1.444254797351483210e+00,6.579949803278266174e+00,1.444254797351483210e+00,5.405750966968589921e+01
1.490355107532684409e+00,-6.660516058730820532e+00,1.490355107532684409e+00,6.654924404685475636e+00,1.490355107532684409e+00,5.410266102342739458e+01
1.536455417713885607e+00,-6.854318423035101304e+00,1.536455417713885607e+00,6.742999322733805201e+00,1.536455417713885607e+00,5.415415427026317730e+01
1.582555727895086806e+00,-6.955291389089684806e+00,1.582555727895086806e+00,6.842788015606748431e+00,1.582555727895086806e+00,5.421308134579802385e+01
1.635423289966753568e+00,-6.950969892473922940e+00,1.635423289966753568e+00,6.969061761535808586e+00,1.635423289966753568e+00,5.429128232648112373e+01
1.688290852038420331e+00,-6.818670922939961798e+00,1.688290852038420331e+00,7.103925927695377673e+00,1.688290852038420331e+00,5.438093807618390940e+01
1.741158414110087094e+00,-6.566360848931736882e+00,1.741158414110087094e+00,7.242210149429475052e+00,1.741158414110087094e+00,5.448084395501452093e+01
1.794025976181753856e+00,-6.210783354956722846e+00,1.794025976181753856e+00,7.378105079085695905e+00,1.794025976181753856e+00,5.458955498605101297e+01
1.846893538253420619e+00,-5.777018812345293242e+00,1.846893538253420619e+00,7.505292774966046743e+00,1.846893538253420619e+00,5.470319394178535077e+01
1.871056341944009160e+00,-5.561463318604696227e+00,1.871056341944009160e+00,7.558805449983122315e+00,1.871056341944009160e+00,5.475549604764236733e+01
1.895219145634597702e+00,-5.339977076054529093e+00,1.895219145634597702e+00,7.608714694122467925e+00,1.895219145634597702e+00,5.480803025835378861e+01
1.919381949325186243e+00,-5.116335515641726062e+00,1.919381949325186243e+00,7.654512973677054966e+00,1.919381949325186243e+00,5.486034845452202546e+01
1.943544753015774784e+00,-4.894488713391706547e+00,1.943544753015774784e+00,7.695773047873079697e+00,1.943544753015774784e+00,5.491223665909408425e+01
1.955832829759476255e+00,-4.783695360855911183e+00,1.955832829759476255e+00,7.714896870287841324e+00,1.955832829759476255e+00,5.493842408655799403e+01
1.968120906503177725e+00,-4.674936410085484439e+00,1.968120906503177725e+00,7.732704320277619559e+00,1.968120906503177725e+00,5.496434956039996678e+01
1.980408983246879195e+00,-4.568755794899741041e+00,1.980408983246879195e+00,7.749182202815712905e+00,1.980408983246879195e+00,5.499017129577117657e+01
2.022974608921229045e+00,-4.227676947194241919e+00,2.022974608921229045e+00,7.795562465969354982e+00,2.022974608921229045e+00,5.507769363748531788e+01
2.065540234595578895e+00,-3.944653838301818816e+00,2.065540234595578895e+00,7.824924841651382579e+00,2.065540234595578895e+00,5.516159190250406397e+01
2.108105860269928744e+00,-3.737723622639612664e+00,2.108105860269928744e+00,7.837621437993905538e+00,2.108105860269928744e+00,5.524120765430438240e+01
2.150671485944278594e+00,-3.621307791631894091e+00,2.150671485944278594e+00,7.835029120758557397e+00,2.150671485944278594e+00,5.531616176390703998e+01
2.193237111618628443e+00,-3.604489066892381466e+00,2.193237111618628443e+00,7.819618391107132638e+00,2.193237111618628443e+00,5.538689684501051858e+01
2.228656871067943079e+00,-3.668469416672486272e+00,2.228656871067943079e+00,7.798933840643215376e+00,2.228656871067943079e+00,5.543879234871238992e+01
2.264076630517257716e+00,-3.801236478069800473e+00,2.264076630517257716e+00,7.773892060335132470e+00,2.264076630517257716e+00,5.548707979226723097e+01
2.299496389966572352e+00,-3.997183918978500561e+00,2.299496389966572352e+00,7.747190635712092543e+00,2.299496389966572352e+00,5.553287484786914519e+01
2.334916149415886988e+00,-4.247084616521018319e+00,2.334916149415886988e+00,7.721289871425309315e+00,2.334916149415886988e+00,5.557418505044259405e+01
2.385990846460761983e+00,-4.677430219616312002e+00,2.385990846460761983e+00,7.690806587728618027e+00,2.385990846460761983e+00,5.562626908467037623e+01
2.437065543505636978e+00,-5.148475445648954540e+00,2.437065543505636978e+00,7.675145787130070119e+00,2.437065543505636978e+00,5.567069344796890107e+01
2.488140240550511972e+00,-5.608088784906771096e+00,2.488140240550511972e+00,7.680287703387524978e+00,2.488140240550511972e+00,5.570957283734637144e+01
2.539214937595386967e+00,-6.003859060871270970e+00,2.539214937595386967e+00,7.710041158726623323e+00,2.539214937595386967e+00,5.574785393667083611e+01
2.590289634640261962e+00,-6.290226240141264746e+00,2.590289634640261962e+00,7.765246897926074254e+00,2.590289634640261962e+00,5.579158458929926212e+01
2.641364331685136957e+00,-6.434583905159730222e+00,2.641364331685136957e+00,7.843112717735134964e+00,2.641364331685136957e+00,5.584430522215271964e+01
2.692439028730011952e+00,-6.423074922515937146e+00,2.692439028730011952e+00,7.937592236344427121e+00,2.692439028730011952e+00,5.590832257260240112e+01
2.743513725774886947e+00,-6.263800933723240760e+00,2.743513725774886947e+00,8.040109553121570940e+00,2.743513725774886947e+00,5.598474594365838186e+01
2.758668021659849590e+00,-6.192064342650850151e+00,2.758668021659849590e+00,8.070554487575641645e+00,2.758668021659849590e+00,5.600939213586288901e+01
2.773822317544812233e+00,-6.111003195252578735e+00,2.773822317544812233e+00,8.100544172483951755e+00,2.773822317544812233e+00,5.603489850673525297e+01
2.788976613429774876e+00,-6.021858936695549502e+00,2.788976613429774876e+00,8.129784707889697870e+00,2.788976613429774876e+00,5.606096722311172442e+01
2.804130909314737519e+00,-5.926025473397543486e+00,2.804130909314737519e+00,8.158028837673962030e+00,2.804130909314737519e+00,5.608759317433777625e+01
2.818351852970161886e+00,-5.831449280719156469e+00,2.818351852970161886e+00,8.183395971091488974e+00,2.818351852970161886e+00,5.611300466686549271e+01
2.832572796625586253e+00,-5.733582866376705667e+00,2.832572796625586253e+00,8.207470546569011205e+00,2.832572796625586253e+00,5.613863817988601568e+01
2.846793740281010621e+00,-5.633766060715653445e+00,2.846793740281010621e+00,8.230084969429112718e+00,2.846793740281010621e+00,5.616445588961498459e+01
2.892133941862236934e+00,-5.317243848207228396e+00,2.892133941862236934e+00,8.290933060300636370e+00,2.892133941862236934e+00,5.624708140492395358e+01
2.920776379170992865e+00,-5.134672591958550747e+00,2.920776379170992865e+00,8.319183758412263430e+00,2.920776379170992865e+00,5.629866487590032165e+01
2.949418816479748795e+00,-4.977612449866201771e+00,2.949418816479748795e+00,8.339084517448961620e+00,2.949418816479748795e+00,5.634884315883461170e+01
2.978061253788504725e+00,-4.855174672752850640e+00,2.978061253788504725e+00,8.350661824848840453e+00,2.978061253788504725e+00,5.639674374422877179e+01
3.006703691097260656e+00,-4.774423894791378409e+00,3.006703691097260656e+00,8.354496719898998336e+00,3.006703691097260656e+00,5.644217983487048684e+01
3.023849191534191849e+00,-4.748180295400681317e+00,3.023849191534191849e+00,8.353495302802155464e+00,3.023849191534191849e+00,5.646803458826148159e+01
3.040994691971123043e+00,-4.739114859318754647e+00,3.040994691971123043e+00,8.350331011758090227e+00,3.040994691971123043e+00,5.649268162523865300e+01
3.058140192408054236e+00,-4.747401208946309126e+00,3.058140192408054236e+00,8.345316303997764251e+00,3.058140192408054236e+00,5.651600216622389183e+01
3.067663985030045115e+00,-4.759474989384698596e+00,3.067663985030045115e+00,8.341840777085247183e+00,3.067663985030045115e+00,5.652831371877332600e+01
3.077187777652035994e+00,-4.776796734379298748e+00,3.077187777652035994e+00,8.337987865331697890e+00,3.077187777652035994e+00,5.654035357739064693e+01
3.086711570274026872e+00,-4.799239113046881222e+00,3.086711570274026872e+00,8.333812755856516929e+00,3.086711570274026872e+00,5.655200948493030211e+01
3.101329635091547576e+00,-4.843231094541028625e+00,3.101329635091547576e+00,8.326943007019160348e+00,3.101329635091547576e+00,5.656907473045365009e+01
3.115947699909068280e+00,-4.898218499892768918e+00,3.115947699909068280e+00,8.319779794392898609e+00,3.115947699909068280e+00,5.658554050008991254e+01
3.130565764726588984e+00,-4.963303644226378708e+00,3.130565764726588984e+00,8.312563637282256224e+00,3.130565764726588984e+00,5.660122727179791724e+01
3.154915397296453872e+00,-5.091504711855473708e+00,3.154915397296453872e+00,8.301028666779258103e+00,3.154915397296453872e+00,5.662531110697689485e+01
3.179265029866318759e+00,-5.238945283915724005e+00,3.179265029866318759e+00,8.291281367654491419e+00,3.179265029866318759e+00,5.664726161992673781e+01
3.203614662436183647e+00,-5.399088920471202258e+00,3.203614662436183647e+00,8.284410517181319378e+00,3.203614662436183647e+00,5.666741889845289393e+01
3.227964295006048534e+00,-5.564649331269439614e+00,3.227964295006048534e+00,8.281385128502700255e+00,3.227964295006048534e+00,5.668606890148299016e+01
3.239728641170487755e+00,-5.644291787145784056e+00,3.239728641170487755e+00,8.281571521687904891e+00,3.239728641170487755e+00,5.669483774263787268e+01
3.251492987334926976e+00,-5.722591616731353525e+00,3.251492987334926976e+00,8.282902607817167251e+00,3.251492987334926976e+00,5.670335140985064015e+01
3.263257333499366197e+00,-5.798740685917545434e+00,3.263257333499366197e+00,8.285460592782577294e+00,3.263257333499366197e+00,5.671187783789107328e+01
3.300449767166337534e+00,-6.017164341445424114e+00,3.300449767166337534e+00,8.301895128241763899e+00,3.300449767166337534e+00,5.673916067752232095e+01
3.337642200833308870e+00,-6.183812350166220995e+00,3.337642200833308870e+00,8.331281033411531922e+00,3.337642200833308870e+00,5.676910594090011131e+01
3.374834634500280206e+00,-6.282807824753240844e+00,3.374834634500280206e+00,8.372369497054030774e+00,3.374834634500280206e+00,5.680292389797141084e+01
3.412027068167251542e+00,-6.305977516187070364e+00,3.412027068167251542e+00,8.422596950219242373e+00,3.412027068167251542e+00,5.684194194568902958e+01
3.449219501834222879e+00,-6.254845517819824785e+00,3.449219501834222879e+00,8.478226152065525767e+00,3.449219501834222879e+00,5.688667761760651587e+01
3.486411935501194215e+00,-6.140157719310175288e+00,3.486411935501194215e+00,8.534811724147965961e+00,3.486411935501194215e+00,5.693655362197591785e+01
3.523604369168165551e+00,-5.980851606495436457e+00,3.523604369168165551e+00,8.587844946035723126e+00,3.523604369168165551e+00,5.699064600215567111e+01
3.564548222679812639e+00,-5.783144046778343039e+00,3.564548222679812639e+00,8.637221121695192849e+00,3.564548222679812639e+00,5.705277700324651136e+01
3.605492076191459727e+00,-5.597652811229284708e+00,3.605492076191459727e+00,8.673422922822593861e+00,3.605492076191459727e+00,5.711478012844978025e+01
3.646435929703106815e+00,-5.457818803721230516e+00,3.646435929703106815e+00,8.694823898458416522e+00,3.646435929703106815e+00,5.717395963926508529e+01
3.687379783214753903e+00,-5.388941950027749783e+00,3.687379783214753903e+00,8.702375327215566614e+00,3.687379783214753903e+00,5.722806870163542925e+01
3.728323636726400991e+00,-5.402901205984695032e+00,3.728323636726400991e+00,8.699490499637176910e+00,3.728323636726400991e+00,5.727651715654658204e+01
3.756383928802768946e+00,-5.459180077907550555e+00,3.756383928802768946e+00,8.694000403623078910e+00,3.756383928802768946e+00,5.730547234550029856e+01
3.784444220879136900e+00,-5.547809733610280958e+00,3.784444220879136900e+00,8.687585230585186835e+00,3.784444220879136900e+00,5.732928933893481371e+01
3.812504512955504854e+00,-5.661239651077456969e+00,3.812504512955504854e+00,8.682587831511593635e+00,3.812504512955504854e+00,5.735166873210447136e+01
3.840564805031872808e+00,-5.789542470508378891e+00,3.840564805031872808e+00,8.680812669210377308e+00,3.840564805031872808e+00,5.737346221614681241e+01
3.873777829745828072e+00,-5.945184964244613290e+00,3.873777829745828072e+00,8.684610028603554355e+00,3.873777829745828072e+00,5.739786889940397430e+01
3.906990854459783336e+00,-6.087463819916965946e+00,3.906990854459783336e+00,8.696259269574358797e+00,3.906990854459783336e+00,5.742216153930564815e+01
3.940203879173738599e+00,-6.203142347015393909e+00,3.940203879173738599e+00,8.715007836483511738e+00,3.940203879173738599e+00,5.744736555435807901e+01
3.973416903887693863e+00,-6.277831780885282598e+00,3.973416903887693863e+00,8.741249844676808323e+00,3.973416903887693863e+00,5.747570632347092356e+01
3.981678168367541737e+00,-6.288772805353448625e+00,3.981678168367541737e+00,8.748880422321045458e+00,3.981678168367541737e+00,5.748328867241863094e+01
3.989939432847389611e+00,-6.296550440099051293e+00,3.989939432847389611e+00,8.756869689234411780e+00,3.989939432847389611e+00,5.749092952551598046e+01
3.998200697327237485e+00,-6.301142517133309084e+00,3.998200697327237485e+00,8.765136374891747906e+00,3.998200697327237485e+00,5.749829821550108733e+01
4.004262275173682717e+00,-6.302525156863626243e+00,4.004262275173682717e+00,8.771405812434231564e+00,4.004262275173682717e+00,5.750389879431418194e+01
4.010323853020127949e+00,-6.302236203722916486e+00,4.010323853020127949e+00,8.777816944947831601e+00,4.010323853020127949e+00,5.750956862321910279e+01
4.016385430866573181e+00,-6.300305645048531744e+00,4.016385430866573181e+00,8.784361465155335225e+00,4.016385430866573181e+00,5.751536892572475068e+01
4.025024394125837901e+00,-6.294788640896558540e+00,4.025024394125837901e+00,8.793881791950504123e+00,4.025024394125837901e+00,5.752384566558584567e+01
4.033663357385102621e+00,-6.286200236980930001e+00,4.033663357385102621e+00,8.803695359216888505e+00,4.033663357385102621e+00,5.753339951878373881e+01
4.042302320644367342e+00,-6.274736310286523455e+00,4.042302320644367342e+00,8.813817751717564875e+00,4.042302320644367342e+00,5.754453583180018228e+01
4.057186905567457202e+00,-6.248561199046143599e+00,4.057186905567457202e+00,8.831390376256271324e+00,4.057186905567457202e+00,5.756418142471817134e+01
4.072071490490547063e+00,-6.215154676122181421e+00,4.072071490490547063e+00,8.848930905018097093e+00,4.072071490490547063e+00,5.758447437549021686e+01
4.086956075413636924e+00,-6.174875972065268392e+00,4.086956075413636924e+00,8.864808852264008721e+00,4.086956075413636924e+00,5.759498101557061034e+01
4.115693443675992214e+00,-6.085294428410803924e+00,4.115693443675992214e+00,8.893748762554514187e+00,4.115693443675992214e+00,5.761648104490705435e+01
4.144430811938347503e+00,-5.994369467348278135e+00,4.144430811938347503e+00,8.924535878989109605e+00,4.144430811938347503e+00,5.768106447664653302e+01
4.173168180200702793e+00,-5.907537886302392849e+00,4.173168180200702793e+00,8.946974008590649063e+00,4.173168180200702793e+00,5.771900042447958867e+01
4.201905548463058082e+00,-5.835998960561819437e+00,4.201905548463058082e+00,8.961411456411937593e+00,4.201905548463058082e+00,5.773497328668171491e+01
4.212378748296592867e+00,-5.816811761338931852e+00,4.212378748296592867e+00,8.966127478265081052e+00,4.212378748296592867e+00,5.774740969697059256e+01
4.222851948130127653e+00,-5.801409050362607012e+00,4.222851948130127653e+00,8.970144957267086383e+00,4.222851948130127653e+00,5.775957741350510588e+01
4.233325147963662438e+00,-5.790014786149643378e+00,4.233325147963662438e+00,8.973485119770561624e+00,4.233325147963662438e+00,5.777132826950587230e+01
4.247726060686413341e+00,-5.781218505141501041e+00,4.247726060686413341e+00,8.977083520100272551e+00,4.247726060686413341e+00,5.778691746658979866e+01
4.262126973409164243e+00,-5.780568703260073882e+00,4.262126973409164243e+00,8.979660224816443659e+00,4.262126973409164243e+00,5.780183112795677403e+01
4.276527886131915146e+00,-5.788060110777223599e+00,4.276527886131915146e+00,8.981392803975516870e+00,4.276527886131915146e+00,5.781608410012250943e+01
4.282823872753819039e+00,-5.793855482533013301e+00,4.282823872753819039e+00,8.981927440898790138e+00,4.282823872753819039e+00,5.782210548010426265e+01
4.289119859375722932e+00,-5.801133065296914637e+00,4.289119859375722932e+00,8.982357813621815623e+00,4.289119859375722932e+00,5.782802215623557629e+01
4.295415845997626825e+00,-5.809841672409678637e+00,4.295415845997626825e+00,8.982695129173096760e+00,4.295415845997626825e+00,5.783378075930659890e+01
4.306201269325378611e+00,-5.827917416332518030e+00,4.306201269325378611e+00,8.983137734723342760e+00,4.306201269325378611e+00,5.784345204988743205e+01
4.316986692653130397e+00,-5.849712473178174221e+00,4.316986692653130397e+00,8.983478705723138447e+00,4.316986692653130397e+00,5.785284735783222487e+01
4.327772115980882184e+00,-5.874831915901154389e+00,4.327772115980882184e+00,8.983800810723412411e+00,4.327772115980882184e+00,5.786189376646512272e+01
4.349175493133635939e+00,-5.932445756740776233e+00,4.349175493133635939e+00,8.984810231611001896e+00,4.349175493133635939e+00,5.787904622455018000e+01
4.370578870286389694e+00,-5.997346079271003383e+00,4.370578870286389694e+00,8.986798788489677392e+00,4.370578870286389694e+00,5.789517898130787188e+01
4.391982247439143450e+00,-6.065237536111538041e+00,4.391982247439143450e+00,8.990371045205458600e+00,4.391982247439143450e+00,5.791066085604108338e+01
4.434718002902588552e+00,-6.193912087213634621e+00,4.434718002902588552e+00,9.003759303576909900e+00,4.434718002902588552e+00,5.794084061711892986e+01
4.477453758366033654e+00,-6.285000425224010812e+00,4.477453758366033654e+00,9.027176770488507529e+00,4.477453758366033654e+00,5.797252733585150963e+01
4.520189513829478756e+00,-6.319592110395696238e+00,4.520189513829478756e+00,9.059396068746435660e+00,4.520189513829478756e+00,5.800793601626302376e+01
4.562925269292923858e+00,-6.294874985947551238e+00,4.562925269292923858e+00,9.096710744290778194e+00,4.562925269292923858e+00,5.804789053461368553e+01
4.588003659267211987e+00,-6.258075694478124618e+00,4.588003659267211987e+00,9.118900434375873942e+00,4.588003659267211987e+00,5.807307028003918248e+01
4.613082049241500115e+00,-6.211225104748741010e+00,4.613082049241500115e+00,9.140016233720166028e+00,4.613082049241500115e+00,5.809910793690727360e+01
4.638160439215788244e+00,-6.160847395991514652e+00,4.638160439215788244e+00,9.159152861137711099e+00,4.638160439215788244e+00,5.812555420966013031e+01
4.686360846363035293e+00,-6.074972051110151483e+00,4.686360846363035293e+00,9.188556039662719499e+00,4.686360846363035293e+00,5.817613545249587048e+01
4.710306473240660985e+00,-6.049447413004351404e+00,4.710306473240660985e+00,9.198823102874397861e+00,4.710306473240660985e+00,5.820024150750011671e+01
4.734252100118286677e+00,-6.039061844564121095e+00,4.734252100118286677e+00,9.206564875378699497e+00,4.734252100118286677e+00,5.822335392282447231e+01
4.758197726995912369e+00,-6.045462826520561883e+00,4.758197726995912369e+00,9.212247546572742252e+00,4.758197726995912369e+00,5.824504606257991668e+01
4.782143353873538061e+00,-6.067861617802371654e+00,4.782143353873538061e+00,9.216600059777288578e+00,4.782143353873538061e+00,5.826521843344565355e+01
4.816926370373900923e+00,-6.122189099118925171e+00,4.816926370373900923e+00,9.222168355258720140e+00,4.816926370373900923e+00,5.828958256957967876e+01
4.844178864091045256e+00,-6.176924199319312692e+00,4.844178864091045256e+00,9.227387596581667850e+00,4.844178864091045256e+00,5.830553744943788530e+01
4.871431357808189588e+00,-6.234972064108162293e+00,4.871431357808189588e+00,9.235005044181342271e+00,4.871431357808189588e+00,5.832056180070046025e+01
4.898683851525333921e+00,-6.288545932459085108e+00,4.898683851525333921e+00,9.245012323272909782e+00,4.898683851525333921e+00,5.833540460744809764e+01
4.942128137087375528e+00,-6.351469244051846097e+00,4.942128137087375528e+00,9.266213019021234842e+00,4.942128137087375528e+00,5.836041084974161208e+01
4.946806657164581900e+00,-6.355406258788234730e+00,4.946806657164581900e+00,9.268899187502857018e+00,4.946806657164581900e+00,5.836327556802806527e+01
4.947143005101968249e+00,-6.355687377450108144e+00,4.947143005101968249e+00,9.269093183174538453e+00,4.947143005101968249e+00,5.836348155846497576e+01
4.947479353039354599e+00,-6.355965712185913219e+00,4.947479353039354599e+00,9.269287429373857634e+00,4.947479353039354599e+00,5.836368730932193216e+01
4.948152048914126411e+00,-6.356517017226437360e+00,4.948152048914126411e+00,9.269676677859846947e+00,4.948152048914126411e+00,5.836409953342995038e+01
4.948824744788898222e+00,-6.357057325627918587e+00,4.948824744788898222e+00,9.270067156093176663e+00,4.948824744788898222e+00,5.836451254790762988e+01
4.949497440663670034e+00,-6.357586588096643787e+00,4.949497440663670034e+00,9.270458806464080936e+00,4.949497440663670034e+00,5.836492601160442462e+01
4.949881605033579213e+00,-6.357882037172005951e+00,4.949881605033579213e+00,9.270683156488397358e+00,4.949881605033579213e+00,5.836516268352658443e+01
4.949977985673126746e+00,-6.357955952359134244e+00,4.949977985673126746e+00,9.270739488639769377e+00,4.949977985673126746e+00,5.836522215155843440e+01
4.949987640747759876e+00,-6.357963374316799587e+00,4.949987640747759876e+00,9.270745161136680679e+00,4.949987640747759876e+00,5.836522831978916770e+01
4.949997295822393006e+00,-6.357970753886451831e+00,4.949997295822393006e+00,9.270750774038139852e+00,4.949997295822393006e+00,5.836523404958977324e+01
4.950016605971658379e+00,4.085794595671862206e-01,4.950016605971658379e+00,-7.571627654403154661e-01,4.950016605971658379e+00,-1.518199222805192683e+01
4.950035916120923751e+00,4.085717703322618855e-01,4.950035916120923751e+00,-7.571590487821393545e-01,4.950035916120923751e+00,-1.518197961159420295e+01
4.950055226270189124e+00,4.085640888925148317e-01,4.950055226270189124e+00,-7.571553314881882546e-01,4.950055226270189124e+00,-1.518196699454039766e+01
4.950248327762843736e+00,4.084876942670636613e-01,4.950248327762843736e+00,-7.571181251589085281e-01,4.950248327762843736e+00,-1.518184079182659829e+01
4.950441429255498349e+00,4.084120652026835829e-01,4.950441429255498349e+00,-7.570808578532184363e-01,4.950441429255498349e+00,-1.518171453043102126e+01
4.950634530748152962e+00,4.083372022843916316e-01,4.950634530748152962e+00,-7.570435297022244381e-01,4.950634530748152962e+00,-1.518158821027950900e+01
4.952565545674696423e+00,4.076306782290602948e-01,4.952565545674696423e+00,-7.566669766057250168e-01,4.952565545674696423e+00,-1.518032176946169720e+01
4.971875694940134593e+00,4.046289574581413140e-01,4.971875694940134593e+00,-7.526653024736877917e-01,4.971875694940134593e+00,-1.516733413982619005e+01
4.991185844205572764e+00,4.086513039342060116e-01,4.991185844205572764e+00,-7.483540836539308572e-01,4.991185844205572764e+00,-1.515377502845193902e+01
5.010495993471010934e+00,4.188178553752515132e-01,5.010495993471010934e+00,-7.439618105023071415e-01,5.010495993471010934e+00,-1.513969368984046149e+01
5.036398103496491530e+00,4.395881901997147345e-01,5.036398103496491530e+00,-7.383743163962452893e-01,5.036398103496491530e+00,-1.512015859757705982e+01
5.056207290521356867e+00,4.593861125857765515e-01,5.056207290521356867e+00,-7.345207932406605522e-01,5.056207290521356867e+00,-1.510484181367583290e+01
5.076016477546222205e+00,4.806038266860100938e-01,5.076016477546222205e+00,-7.312349418313335292e-01,5.076016477546222205e+00,-1.508935282878253226e+01
5.095825664571087543e+00,5.015224235575281853e-01,5.095825664571087543e+00,-7.286288488755023884e-01,5.095825664571087543e+00,-1.507383481829623584e+01
5.129225264583927135e+00,5.324368186647837620e-01,5.129225264583927135e+00,-7.258645847021947262e-01,5.129225264583927135e+00,-1.504793004010545943e+01
5.162624864596766727e+00,5.523635882216473281e-01,5.162624864596766727e+00,-7.250791279615933504e-01,5.162624864596766727e+00,-1.502286548875046179e+01
5.189670651861543860e+00,5.573901270635618355e-01,5.189670651861543860e+00,-7.256465656438779721e-01,5.189670651861543860e+00,-1.500349801161439167e+01
5.216716439126320992e+00,5.522463876266048288e-01,5.216716439126320992e+00,-7.268383931008086662e-01,5.216716439126320992e+00,-1.498504524998096521e+01
5.243762226391098125e+00,5.382547422325745234e-01,5.243762226391098125e+00,-7.281792470710195531e-01,5.243762226391098125e+00,-1.496745310812200103e+01
5.270808013655875257e+00,5.179030525210651659e-01,5.270808013655875257e+00,-7.292165424217413872e-01,5.270808013655875257e+00,-1.495055783511293868e+01
5.305983147408582568e+00,4.871069463027108970e-01,5.305983147408582568e+00,-7.295115707386057302e-01,5.305983147408582568e+00,-1.492923482497519672e+01
5.341158281161289878e+00,4.581898056052624568e-01,5.341158281161289878e+00,-7.281561617517195995e-01,5.341158281161289878e+00,-1.490808525338558432e+01
5.376333414913997188e+00,4.377427636668244082e-01,5.376333414913997188e+00,-7.250821530331628129e-01,5.376333414913997188e+00,-1.488650272783755035e+01
5.411508548666704499e+00,4.295162186751594335e-01,5.411508548666704499e+00,-7.206498963528047419e-01,5.411508548666704499e+00,-1.486408120882095751e+01
5.446683682419411809e+00,4.337202927357527438e-01,5.446683682419411809e+00,-7.155134996969827466e-01,5.446683682419411809e+00,-1.484070435310611202e+01
5.481858816172119120e+00,4.475295391052452887e-01,5.481858816172119120e+00,-7.104246164386283091e-01,5.481858816172119120e+00,-1.481652863192394065e+01
5.517033949924826430e+00,4.662284100237776840e-01,5.517033949924826430e+00,-7.060394553301425624e-01,5.517033949924826430e+00,-1.479190264132263444e+01
5.552209083677533741e+00,4.845626682536909868e-01,5.552209083677533741e+00,-7.027769634196814330e-01,5.552209083677533741e+00,-1.476725869416772596e+01
5.587384217430241051e+00,4.979952385338212162e-01,5.587384217430241051e+00,-7.007517150295343722e-01,5.587384217430241051e+00,-1.474300395703756905e+01
5.622559351182948362e+00,5.036389170507424851e-01,5.622559351182948362e+00,-6.997843601395925539e-01,5.622559351182948362e+00,-1.471943255780522186e+01
5.657734484935655672e+00,5.007779423307436861e-01,5.657734484935655672e+00,-6.995600155684589261e-01,5.657734484935655672e+00,-1.469730100950494389e+01
5.698846855192882366e+00,5.030333214291183852e-01,5.698846855192882366e+00,-7.134478493706368774e-01,5.698846855192882366e+00,-1.466924141570124007e+01
5.732595581866729795e+00,5.113440563838375086e-01,5.732595581866729795e+00,-7.346503338359109403e-01,5.732595581866729795e+00,-1.464412839829262225e+01
5.766344308540577224e+00,5.124232513997455385e-01,5.766344308540577224e+00,-7.488811403039690173e-01,5.766344308540577224e+00,-1.462075155482935074e+01
5.800093035214424653e+00,5.061587663337043796e-01,5.800093035214424653e+00,-7.533178354358815998e-01,5.800093035214424653e+00,-1.459952533089076532e+01
5.833841761888272082e+00,4.938443893261534878e-01,5.833841761888272082e+00,-7.472396966338961111e-01,5.833841761888272082e+00,-1.458043984813443750e+01
5.867590488562119511e+00,4.783944305022507226e-01,5.867590488562119511e+00,-7.325126747009671480e-01,5.867590488562119511e+00,-1.456296842523919821e+01
5.901339215235966940e+00,4.633703804168480822e-01,5.901339215235966940e+00,-7.128596161812477128e-01,5.901339215235966940e+00,-1.454625596376971686e+01
5.935087941909814369e+00,4.517290621979148657e-01,5.935087941909814369e+00,-6.925975725371347202e-01,5.935087941909814369e+00,-1.452941161074958210e+01
5.968836668583661798e+00,4.451534379048946999e-01,5.968836668583661798e+00,-6.755492898268551372e-01,5.968836668583661798e+00,-1.451172691670487147e+01
6.002585395257509226e+00,4.440335565412473207e-01,6.002585395257509226e+00,-6.643797353193214850e-01,6.002585395257509226e+00,-1.449277576658932887e+01
6.036334121931356655e+00,4.477175687189015596e-01,6.036334121931356655e+00,-6.602947895237094578e-01,6.036334121931356655e+00,-1.447243812828821419e+01
6.070082848605204084e+00,4.547844083650657288e-01,6.070082848605204084e+00,-6.630118346508577787e-01,6.070082848605204084e+00,-1.445088207191764340e+01
6.117954859488964559e+00,4.670611453104784871e-01,6.117954859488964559e+00,-6.754704321335966988e-01,6.117954859488964559e+00,-1.441898465343587787e+01
6.165826870372725033e+00,4.770580122138773360e-01,6.165826870372725033e+00,-6.916655785201495377e-01,6.165826870372725033e+00,-1.438691970931229136e+01
6.213698881256485507e+00,4.807561013861415544e-01,6.213698881256485507e+00,-7.041801263981870562e-01,6.213698881256485507e+00,-1.435614471702574235e+01
6.261570892140245981e+00,4.769231291277375995e-01,6.261570892140245981e+00,-7.078200699343673019e-01,6.261570892140245981e+00,-1.432753758711963066e+01
6.309442903024006455e+00,4.673214235723402998e-01,6.309442903024006455e+00,-7.013611600790428113e-01,6.309442903024006455e+00,-1.430111890241423822e+01
6.357314913907766929e+00,4.557265722982770662e-01,6.357314913907766929e+00,-6.875903738096678097e-01,6.357314913907766929e+00,-1.427613092549120033e+01
6.405186924791527403e+00,4.462568942480410472e-01,6.405186924791527403e+00,-6.717706754930521384e-01,6.405186924791527403e+00,-1.425141178583156787e+01
6.453058935675287877e+00,4.417533830777756743e-01,6.453058935675287877e+00,-6.593181479551515345e-01,6.453058935675287877e+00,-1.422588727640500572e+01
6.500930946559048351e+00,4.428432343953192518e-01,6.500930946559048351e+00,-6.537107262829564558e-01,6.500930946559048351e+00,-1.419897331341220692e+01
6.548802957442808825e+00,4.479669599442581696e-01,6.548802957442808825e+00,-6.554143936945835414e-01,6.548802957442808825e+00,-1.417074111700675942e+01
6.596674968326569299e+00,4.542341468694404139e-01,6.596674968326569299e+00,-6.620984012188682044e-01,6.596674968326569299e+00,-1.414180995701190113e+01
6.651754489460157238e+00,4.591625001921377791e-01,6.651754489460157238e+00,-6.709892282264391383e-01,6.651754489460157238e+00,-1.410875270744432441e+01
6.696405492434079676e+00,4.593344169188648962e-01,6.696405492434079676e+00,-6.752655897531705254e-01,6.696405492434079676e+00,-1.408291232739408194e+01
6.741056495408002114e+00,4.559369816671955400e-01,6.741056495408002114e+00,-6.750369755530436500e-01,6.741056495408002114e+00,-1.405822900899954675e+01
6.785707498381924552e+00,4.500693241705083780e-01,6.785707498381924552e+00,-6.702602297993054403e-01,6.785707498381924552e+00,-1.403460592291500220e+01
6.830358501355846990e+00,4.434831528859369820e-01,6.830358501355846990e+00,-6.623572529079027049e-01,6.830358501355846990e+00,-1.401166059094360072e+01
6.875009504329769427e+00,4.379367045436094452e-01,6.875009504329769427e+00,-6.535659086998575340e-01,6.875009504329769427e+00,-1.398888313206445311e+01
6.919660507303691865e+00,4.346366086147548380e-01,6.919660507303691865e+00,-6.461085493658678125e-01,6.919660507303691865e+00,-1.396581591878345030e+01
6.964311510277614303e+00,4.339356158208143022e-01,6.964311510277614303e+00,-6.414958536737793704e-01,6.964311510277614303e+00,-1.394219042668862762e+01
7.008962513251536741e+00,4.353413550913300956e-01,7.008962513251536741e+00,-6.401635875914823970e-01,7.008962513251536741e+00,-1.391798442662544311e+01
7.063418435023699260e+00,4.383876351236413171e-01,7.063418435023699260e+00,-6.420468298838855059e-01,7.063418435023699260e+00,-1.388796527199142794e+01
7.117874356795861779e+00,4.408377699491072832e-01,7.117874356795861779e+00,-6.455104642743139109e-01,7.117874356795861779e+00,-1.385794953414295527e+01
7.172330278568024298e+00,4.410520014364698316e-01,7.172330278568024298e+00,-6.478418930901053141e-01,7.172330278568024298e+00,-1.382851747704937395e+01
7.226786200340186817e+00,4.385431814449451959e-01,7.226786200340186817e+00,-6.471381390137451728e-01,7.226786200340186817e+00,-1.380001329868248483e+01
7.281242122112349335e+00,4.340452152721948620e-01,7.281242122112349335e+00,-6.430166976195057504e-01,7.281242122112349335e+00,-1.377242546317762795e+01
7.335698043884511854e+00,4.290615691602006621e-01,7.335698043884511854e+00,-6.366099397168534235e-01,7.335698043884511854e+00,-1.374542883850518216e+01
7.390153965656674373e+00,4.251373926635702016e-01,7.390153965656674373e+00,-6.299085986296013573e-01,7.390153965656674373e+00,-1.371855673635145045e+01
7.444609887428836892e+00,4.231954721583148782e-01,7.444609887428836892e+00,-6.248075039352696258e-01,7.444609887428836892e+00,-1.369141615221374941e+01
7.507388720555784545e+00,4.232522010589234718e-01,7.507388720555784545e+00,-6.219464582530960239e-01,7.507388720555784545e+00,-1.365964273870124579e+01
7.570167553682732198e+00,4.156392611973576123e-01,7.570167553682732198e+00,-5.798673455677285649e-01,7.570167553682732198e+00,-1.363468613328742762e+01
7.577315223854654391e+00,4.128483603934653967e-01,7.577315223854654391e+00,-5.660707948290746305e-01,7.577315223854654391e+00,-1.363341193136039742e+01
7.584462894026576585e+00,4.101326310784279006e-01,7.584462894026576585e+00,-5.526904140821717881e-01,7.584462894026576585e+00,-1.363206957975676481e+01
7.591610564198498778e+00,4.075078227696161681e-01,7.591610564198498778e+00,-5.398092139675256806e-01,7.591610564198498778e+00,-1.363064424703372168e+01
7.605905904542344054e+00,4.025799835602321686e-01,7.605905904542344054e+00,-5.157985889392548984e-01,7.605905904542344054e+00,-1.362749882750527064e+01
7.620201244886189329e+00,3.981728761360490143e-01,7.620201244886189329e+00,-4.945977897565394521e-01,7.620201244886189329e+00,-1.362387481854291771e+01
7.634496585230034604e+00,3.943838585469205960e-01,7.634496585230034604e+00,-4.767049394781754934e-01,7.634496585230034604e+00,-1.361968171988933385e+01
7.648791925573879880e+00,3.912823716450672951e-01,7.648791925573879880e+00,-4.624692336241729151e-01,7.648791925573879880e+00,-1.361485532396738130e+01
7.678780871642169714e+00,3.871774664410811972e-01,7.678780871642169714e+00,-4.452972106179464706e-01,7.678780871642169714e+00,-1.360252033782508541e+01
7.708769817710459549e+00,3.864010939792199562e-01,7.708769817710459549e+00,-4.455925579548414284e-01,7.708769817710459549e+00,-1.358713225746796738e+01
7.738758763778749383e+00,3.886286469877187066e-01,7.738758763778749383e+00,-4.615110470395578091e-01,7.738758763778749383e+00,-1.356901447908133207e+01
7.768747709847039218e+00,3.931991122043398956e-01,7.768747709847039218e+00,-4.894728774780119362e-01,7.768747709847039218e+00,-1.354880672846527823e+01
7.798736655915329052e+00,3.992417252252751236e-01,7.798736655915329052e+00,-5.248395918905526258e-01,7.798736655915329052e+00,-1.352733980106127554e+01
7.841206021709242080e+00,4.084579839544977276e-01,7.841206021709242080e+00,-5.777948850375347334e-01,7.841206021709242080e+00,-1.349653297943511632e+01
7.883675387503155108e+00,4.160863254978361958e-01,7.883675387503155108e+00,-6.218051085962250646e-01,7.883675387503155108e+00,-1.346742946565129273e+01
7.926144753297068135e+00,4.202187719259921073e-01,7.926144753297068135e+00,-6.470669611421457912e-01,7.926144753297068135e+00,-1.344174879974432990e+01
7.968614119090981163e+00,4.200119087553463304e-01,7.968614119090981163e+00,-6.494306535491993770e-01,7.968614119090981163e+00,-1.342021118577312322e+01
8.011083484884894190e+00,4.156994162174636465e-01,8.011083484884894190e+00,-6.303809983914665516e-01,8.011083484884894190e+00,-1.340255550771718163e+01
8.053552850678807218e+00,4.084000788494186462e-01,8.053552850678807218e+00,-5.959719760018644674e-01,8.053552850678807218e+00,-1.338772655215838370e+01
8.096022216472720245e+00,3.997696824848411268e-01,8.096022216472720245e+00,-5.549775084471628706e-01,8.096022216472720245e+00,-1.337418860841878399e+01
8.138491582266633273e+00,3.915656154471358619e-01,8.138491582266633273e+00,-5.166077076307442617e-01,8.138491582266633273e+00,-1.336031631606471137e+01
8.180960948060546301e+00,3.852353746332881634e-01,8.180960948060546301e+00,-4.883664290617641957e-01,8.180960948060546301e+00,-1.334477138231550164e+01
8.251579068156580377e+00,3.810284916405803912e-01,8.251579068156580377e+00,-4.747757543936459435e-01,8.251579068156580377e+00,-1.331337203350257248e+01
8.261262543967887950e+00,3.810392467616652290e-01,8.261262543967887950e+00,-4.759780008653315964e-01,8.261262543967887950e+00,-1.330855697192908771e+01
8.270946019779195524e+00,3.811763073529759183e-01,8.270946019779195524e+00,-4.778353999301514499e-01,8.270946019779195524e+00,-1.330363045786927678e+01
8.280629495590503097e+00,3.814345661472660076e-01,8.280629495590503097e+00,-4.803201138938006931e-01,8.280629495590503097e+00,-1.329859744054173909e+01
8.290312971401810671e+00,3.818031777009667227e-01,8.290312971401810671e+00,-4.833737022041937337e-01,8.290312971401810671e+00,-1.329346831325287326e+01
8.299996447213118245e+00,3.822692293059786195e-01,8.299996447213118245e+00,-4.869269193522718364e-01,8.299996447213118245e+00,-1.328825539791088772e+01
8.309679923024425818e+00,3.828205079630215835e-01,8.309679923024425818e+00,-4.909145899966742554e-01,8.309679923024425818e+00,-1.328297030286070957e+01
8.329046874647040966e+00,3.841243714781823471e-01,8.329046874647040966e+00,-4.999039107621037203e-01,8.329046874647040966e+00,-1.327223509981976690e+01
8.348413826269656113e+00,3.856144526674463169e-01,8.348413826269656113e+00,-5.098104873261544157e-01,8.348413826269656113e+00,-1.326135730194214624e+01
8.367780777892271260e+00,3.871886023505082264e-01,8.367780777892271260e+00,-5.200966886815854284e-01,8.367780777892271260e+00,-1.325043256687324345e+01
8.387147729514886407e+00,3.887408288009679413e-01,8.387147729514886407e+00,-5.302076693067334645e-01,8.387147729514886407e+00,-1.323955946275503592e+01
8.406514681137501555e+00,3.901688663920737099e-01,8.406514681137501555e+00,-5.396111117826820625e-01,8.406514681137501555e+00,-1.322883239459949145e+01
8.425881632760116702e+00,3.913832152327421099e-01,8.425881632760116702e+00,-5.478438395158653496e-01,8.425881632760116702e+00,-1.321833335056219560e+01
8.469371377708892368e+00,3.929633803481173970e-01,8.469371377708892368e+00,-5.601778752169477293e-01,8.469371377708892368e+00,-1.319592134851619392e+01
8.512861122657668034e+00,3.926195382553996360e-01,8.512861122657668034e+00,-5.622763973581152985e-01,8.512861122657668034e+00,-1.317542312358841450e+01
8.556350867606443700e+00,3.903753663556608355e-01,8.556350867606443700e+00,-5.542972761351834254e-01,8.556350867606443700e+00,-1.315680992972593266e+01
8.599840612555219366e+00,3.866566367556061312e-01,8.599840612555219366e+00,-5.385745560451613567e-01,8.599840612555219366e+00,-1.313967202700751180e+01
8.643330357503995032e+00,3.821185750246398616e-01,8.643330357503995032e+00,-5.187721984832021072e-01,8.643330357503995032e+00,-1.312336741877401991e+01
8.686820102452770698e+00,3.774905952536278253e-01,8.686820102452770698e+00,-4.989337715497561554e-01,8.686820102452770698e+00,-1.310718444454082210e+01
8.742507737176582694e+00,3.725024657694886443e-01,8.742507737176582694e+00,-4.790330285656838605e-01,8.742507737176582694e+00,-1.308564973487718497e+01
8.798195371900394690e+00,3.694183409929261419e-01,8.798195371900394690e+00,-4.694526135892846952e-01,8.798195371900394690e+00,-1.306245242893294467e+01
8.853883006624206686e+00,3.684458777422774389e-01,8.853883006624206686e+00,-4.708177548305458870e-01,8.853883006624206686e+00,-1.303746557612551982e+01
8.909570641348018682e+00,3.690427502589503916e-01,8.909570641348018682e+00,-4.798944507785869451e-01,8.909570641348018682e+00,-1.301125490475503277e+01
8.965258276071830679e+00,3.702114373145679593e-01,8.965258276071830679e+00,-4.913505036461016662e-01,8.965258276071830679e+00,-1.298476790543123549e+01
9.020945910795642675e+00,3.709397755324062018e-01,9.020945910795642675e+00,-4.998733632487830647e-01,9.020945910795642675e+00,-1.295894940674183005e+01
9.076633545519454671e+00,3.705103738896913246e-01,9.076633545519454671e+00,-5.019008547129146791e-01,9.076633545519454671e+00,-1.293443571269733461e+01
9.132321180243266667e+00,3.686644037497839310e-01,9.132321180243266667e+00,-4.965418240466668021e-01,9.132321180243266667e+00,-1.291139428094489361e+01
9.188008814967078663e+00,3.656333573708661078e-01,9.188008814967078663e+00,-4.854563286237432163e-01,9.188008814967078663e+00,-1.288953978689678515e+01
9.260528016574445687e+00,3.608457185580988824e-01,9.260528016574445687e+00,-4.676414139119942082e-01,9.260528016574445687e+00,-1.286193976886651669e+01
9.314317000629475984e+00,3.576440539191148016e-01,9.314317000629475984e+00,-4.565241562560453659e-01,9.314317000629475984e+00,-1.284127117065963297e+01
9.368105984684506282e+00,3.553074199186139204e-01,9.368105984684506282e+00,-4.495318776512933212e-01,9.368105984684506282e+00,-1.282000061883450037e+01
9.421894968739536580e+00,3.540100120925491201e-01,9.421894968739536580e+00,-4.471042826653048863e-01,9.421894968739536580e+00,-1.279803647517113063e+01
9.475683952794566878e+00,3.535443120163188624e-01,9.475683952794566878e+00,-4.483428404803169176e-01,9.475683952794566878e+00,-1.277554147316128308e+01
9.529472936849597176e+00,3.533897269286270237e-01,9.529472936849597176e+00,-4.514448575585039425e-01,9.529472936849597176e+00,-1.275285708809871998e+01
9.594167209499774529e+00,3.528744530487264441e-01,9.594167209499774529e+00,-4.548227392978734240e-01,9.594167209499774529e+00,-1.272584969428771551e+01
9.658861482149951883e+00,3.514214181380412860e-01,9.658861482149951883e+00,-4.551186670897138242e-01,9.658861482149951883e+00,-1.269963236501512149e+01
9.723555754800129236e+00,3.489181450517195859e-01,9.723555754800129236e+00,-4.511038454539777476e-01,9.723555754800129236e+00,-1.267441005061379578e+01
9.776101930489584646e+00,3.569708373935762680e-01,9.776101930489584646e+00,-4.739619798835776887e-01,9.776101930489584646e+00,-1.264917218873849158e+01
9.786367824272247162e+00,3.613678834283977626e-01,9.786367824272247162e+00,-4.858681509021161027e-01,9.786367824272247162e+00,-1.264283780475689234e+01
9.796633718054909679e+00,3.656054567878421757e-01,9.796633718054909679e+00,-4.973011022939488601e-01,9.796633718054909679e+00,-1.263659983878011239e+01
9.806899611837572195e+00,3.696374850592323291e-01,9.806899611837572195e+00,-5.081410861834336767e-01,9.806899611837572195e+00,-1.263048237498579951e+01
9.827431399402895451e+00,3.769613817533417066e-01,9.827431399402895451e+00,-5.277095749762148458e-01,9.827431399402895451e+00,-1.261867522616872250e+01
9.847963186968218707e+00,3.830638581866865344e-01,9.847963186968218707e+00,-5.438532427906197508e-01,9.847963186968218707e+00,-1.260756094399229355e+01
9.868494974533541964e+00,3.877132782320595883e-01,9.868494974533541964e+00,-5.559844786277325923e-01,9.868494974533541964e+00,-1.259725848678843896e+01
9.889026762098865220e+00,3.907684669116193721e-01,9.889026762098865220e+00,-5.637640785727588977e-01,9.889026762098865220e+00,-1.258783798898708817e+01
9.922003885381757371e+00,3.922033833950053783e-01,9.922003885381757371e+00,-5.668871913835824561e-01,9.922003885381757371e+00,-1.257461412699580272e+01
9.954981008664649522e+00,3.894551244952431102e-01,9.954981008664649522e+00,-5.588507934049675718e-01,9.954981008664649522e+00,-1.256367719730502053e+01
9.987958131947541673e+00,3.830949881511278576e-01,9.987958131947541673e+00,-5.413161027235522393e-01,9.987958131947541673e+00,-1.255471381277744491e+01
1.002093525523043382e+01,3.740201413011290388e-01,1.002093525523043382e+01,-5.167782888468344105e-01,1.002093525523043382e+01,-1.254724107957568080e+01
1.005391237851332598e+01,3.633112752883504992e-01,1.005391237851332598e+01,-4.881856861341371534e-01,1.005391237851332598e+01,-1.254067838229729226e+01
1.009357267933017610e+01,3.498714847167758712e-01,1.009357267933017610e+01,-4.527502126572511276e-01,1.009357267933017610e+01,-1.253312462996364118e+01
1.013323298014702623e+01,3.376004880946694708e-01,1.013323298014702623e+01,-4.209134193426709025e-01,1.013323298014702623e+01,-1.252497080873464164e+01
1.017289328096387635e+01,3.280497940345039609e-01,1.017289328096387635e+01,-3.967453667252294203e-01,1.017289328096387635e+01,-1.251536439816052670e+01
1.021255358178072647e+01,3.222340297933365960e-01,1.021255358178072647e+01,-3.828330135626594188e-01,1.021255358178072647e+01,-1.250374433626729598e+01
1.025221388259757660e+01,3.205359786810535461e-01,1.025221388259757660e+01,-3.800467937548468456e-01,1.025221388259757660e+01,-1.248990020894308373e+01
1.029959490916657749e+01,3.235506708033337731e-01,1.029959490916657749e+01,-3.901453819537801238e-01,1.029959490916657749e+01,-1.247065014788360315e+01
1.034697593573557839e+01,3.307442779084956985e-01,1.034697593573557839e+01,-4.111414100351153955e-01,1.034697593573557839e+01,-1.244919445996656826e+01
1.039435696230457928e+01,3.400827452051742306e-01,1.039435696230457928e+01,-4.374433555424117603e-01,1.039435696230457928e+01,-1.242668230425651288e+01
1.044173798887358018e+01,3.493241823257917655e-01,1.044173798887358018e+01,-4.630056319515811758e-01,1.044173798887358018e+01,-1.240436990954169438e+01
1.048911901544258107e+01,3.564916599238185935e-01,1.048911901544258107e+01,-4.825920941469510339e-01,1.048911901544258107e+01,-1.238335393523214023e+01
1.054908380892875108e+01,3.605787925745194133e-01,1.054908380892875108e+01,-4.936395398892992059e-01,1.054908380892875108e+01,-1.235971505390703129e+01
1.060904860241492109e+01,3.583129139149072717e-01,1.060904860241492109e+01,-4.875629561860741479e-01,1.060904860241492109e+01,-1.233979232765234535e+01
1.065618651784739868e+01,3.528927700784196819e-01,1.065618651784739868e+01,-4.731947772446243317e-01,1.065618651784739868e+01,-1.232626446022944400e+01
1.070332443327987626e+01,3.455881231676924958e-01,1.070332443327987626e+01,-4.540527379351881887e-01,1.070332443327987626e+01,-1.231386528363306532e+01
1.075046234871235384e+01,3.377795221825548033e-01,1.075046234871235384e+01,-4.338930466607660019e-01,1.075046234871235384e+01,-1.230181103489911898e+01
1.079760026414483143e+01,3.307432318341487765e-01,1.079760026414483143e+01,-4.161231238025042689e-01,1.079760026414483143e+01,-1.228937566781017310e+01
1.084473817957730901e+01,3.254835239051663276e-01,1.084473817957730901e+01,-4.033613094624144413e-01,1.084473817957730901e+01,-1.227598711580799318e+01
1.089187609500978660e+01,3.226056447124863169e-01,1.089187609500978660e+01,-3.971178989696122485e-01,1.089187609500978660e+01,-1.226130178143091953e+01
1.095752393535786418e+01,3.227335285941512755e-01,1.095752393535786418e+01,-3.995106492030875422e-01,1.095752393535786418e+01,-1.223860167626577677e+01
1.102317177570594176e+01,3.266093113740504705e-01,1.102317177570594176e+01,-4.116759178770925676e-01,1.102317177570594176e+01,-1.221411102410850091e+01
1.108881961605401933e+01,3.320011122347032995e-01,1.108881961605401933e+01,-4.275057496248459987e-01,1.108881961605401933e+01,-1.218894136138844964e+01
1.115446745640209691e+01,3.365045548262441955e-01,1.115446745640209691e+01,-4.405443762560683485e-01,1.115446745640209691e+01,-1.216448873943730646e+01
1.122011529675017449e+01,3.383700206325739313e-01,1.122011529675017449e+01,-4.462257825198165939e-01,1.122011529675017449e+01,-1.214176318300745017e+01
1.128576313709825207e+01,3.369818553392851523e-01,1.128576313709825207e+01,-4.431079584068964294e-01,1.128576313709825207e+01,-1.212110764593166401e+01
1.135141097744632965e+01,3.328785633573849712e-01,1.135141097744632965e+01,-4.328488866195134843e-01,1.135141097744632965e+01,-1.210218965369139177e+01
1.141705881779440723e+01,3.274022164709997629e-01,1.141705881779440723e+01,-4.191936436271843647e-01,1.141705881779440723e+01,-1.208420663217052571e+01
1.148270665814248481e+01,3.221278132334735034e-01,1.148270665814248481e+01,-4.063981113075680884e-01,1.148270665814248481e+01,-1.206622102156781651e+01
1.154835449849056239e+01,3.183091158356790018e-01,1.154835449849056239e+01,-3.977439123962509537e-01,1.154835449849056239e+01,-1.204748888190619205e+01
1.161400233883863997e+01,3.165389484037146595e-01,1.161400233883863997e+01,-3.946736881461785362e-01,1.161400233883863997e+01,-1.202766332820827877e+01
1.167965017918671755e+01,3.166904778012100685e-01,1.167965017918671755e+01,-3.966969572049290349e-01,1.167965017918671755e+01,-1.200683009513162069e+01
1.174529801953479513e+01,3.180850125414012020e-01,1.174529801953479513e+01,-4.018895760566543185e-01,1.174529801953479513e+01,-1.198540606686876941e+01
1.181094585988287271e+01,3.197854229380245883e-01,1.181094585988287271e+01,-4.077020028250293304e-01,1.181094585988287271e+01,-1.196396149514600360e+01
1.187659370023095029e+01,3.209095970514967977e-01,1.187659370023095029e+01,-4.117963750508297771e-01,1.187659370023095029e+01,-1.194303012756581062e+01
1.196351425203952168e+01,3.205478815005775584e-01,1.196351425203952168e+01,-4.121148763440658502e-01,1.196351425203952168e+01,-1.191668362024600825e+01
1.205043480384809307e+01,3.179338817552002094e-01,1.205043480384809307e+01,-4.064302762218394705e-01,1.205043480384809307e+01,-1.189196707903465544e+01
1.213735535565666446e+01,3.140066272108841261e-01,1.213735535565666446e+01,-3.974239284998715149e-01,1.213735535565666446e+01,-1.186828701415862142e+01
1.222427590746523585e+01,3.102215249993574009e-01,1.222427590746523585e+01,-3.890358010880698991e-01,1.222427590746523585e+01,-1.184473432834069939e+01
1.231119645927380724e+01,3.076991452507582547e-01,1.231119645927380724e+01,-3.841825070833990718e-01,1.231119645927380724e+01,-1.182061174331651188e+01
1.239811701108237862e+01,3.066905840831075647e-01,1.239811701108237862e+01,-3.833926009824408787e-01,1.239811701108237862e+01,-1.179576905607371984e+01
1.248503756289095001e+01,3.066215329147896629e-01,1.248503756289095001e+01,-3.850113677294704218e-01,1.248503756289095001e+01,-1.177057620977568853e+01
1.257195811469952140e+01,3.065796184648714728e-01,1.257195811469952140e+01,-3.865595921090820841e-01,1.257195811469952140e+01,-1.174561439041063515e+01
1.265887866650809279e+01,3.058654575267347742e-01,1.265887866650809279e+01,-3.862078956410541775e-01,1.265887866650809279e+01,-1.172132538077426744e+01
1.274579921831666418e+01,3.042823268822179017e-01,1.274579921831666418e+01,-3.835110019358698441e-01,1.274579921831666418e+01,-1.169782727324534477e+01
1.283271977012523557e+01,3.020847756152258423e-01,1.283271977012523557e+01,-3.792215246736194700e-01,1.283271977012523557e+01,-1.167494810791714954e+01
1.291964032193380696e+01,2.997255030584169422e-01,1.291964032193380696e+01,-3.745829048454731858e-01,1.291964032193380696e+01,-1.165238913376410679e+01
1.300656087374237835e+01,2.975990552442309145e-01,1.300656087374237835e+01,-3.706408301838539643e-01,1.300656087374237835e+01,-1.162989086027923591e+01
1.309348142555094974e+01,2.959021734004687598e-01,1.309348142555094974e+01,-3.678857270461775020e-01,1.309348142555094974e+01,-1.160732420153106759e+01
1.318040197735952113e+01,2.946205839444082653e-01,1.318040197735952113e+01,-3.662388739980420027e-01,1.318040197735952113e+01,-1.158469932487562382e+01
1.329548292516678742e+01,2.933012119472915291e-01,1.329548292516678742e+01,-3.650143663908642644e-01,1.329548292516678742e+01,-1.155482931020718240e+01
1.341056387297405372e+01,2.919272926702436433e-01,1.341056387297405372e+01,-3.635712328516231828e-01,1.341056387297405372e+01,-1.152537770931595951e+01
1.352564482078132002e+01,2.901115990802654032e-01,1.352564482078132002e+01,-3.609099928741199559e-01,1.352564482078132002e+01,-1.149659956963072460e+01
1.364072576858858632e+01,2.878191661017543979e-01,1.364072576858858632e+01,-3.569945808186596459e-01,1.364072576858858632e+01,-1.146851066239938710e+01
1.375580671639585262e+01,2.853443697487478836e-01,1.375580671639585262e+01,-3.526528947653324586e-01,1.375580671639585262e+01,-1.144090136237199928e+01
1.388884428185032860e+01,2.827366825156609753e-01,1.388884428185032860e+01,-3.483813987442951898e-01,1.388884428185032860e+01,-1.140924316688316864e+01
1.402188184730480458e+01,2.807590762364895465e-01,1.402188184730480458e+01,-3.457977601783264188e-01,1.402188184730480458e+01,-1.137771365460683981e+01
1.415491941275928056e+01,2.792906336968601355e-01,1.415491941275928056e+01,-3.444686535198204780e-01,1.415491941275928056e+01,-1.134653687327892335e+01
1.428795697821375654e+01,2.777377526514450690e-01,1.428795697821375654e+01,-3.428178860165045361e-01,1.428795697821375654e+01,-1.131587376286054081e+01
1.442099454366823252e+01,2.755306446587308944e-01,1.442099454366823252e+01,-3.393665568732813220e-01,1.442099454366823252e+01,-1.128612784245830092e+01
1.444760205675912701e+01,2.749678523457894652e-01,1.444760205675912701e+01,-3.383574228281429619e-01,1.444760205675912701e+01,-1.128031838623714300e+01
1.447420956985002150e+01,2.743793386232065146e-01,1.447420956985002150e+01,-3.372851860395664758e-01,1.447420956985002150e+01,-1.127454419268349639e+01
1.450081708294091598e+01,2.737783133070648134e-01,1.450081708294091598e+01,-3.361851936384010475e-01,1.450081708294091598e+01,-1.126879560362127108e+01
1.452742459603181047e+01,2.731738526945044487e-01,1.452742459603181047e+01,-3.350815883498268200e-01,1.452742459603181047e+01,-1.126306596330022813e+01
1.458063962221360121e+01,2.719775763856124851e-01,1.458063962221360121e+01,-3.329239684917557618e-01,1.458063962221360121e+01,-1.125164661718922865e+01
1.463385464839539196e+01,2.708355304478611281e-01,1.463385464839539196e+01,-3.309298261272157760e-01,1.463385464839539196e+01,-1.124025286272148882e+01
1.468706967457718271e+01,2.697794793369481248e-01,1.468706967457718271e+01,-3.291794984416633874e-01,1.468706967457718271e+01,-1.122886113851259182e+01
1.474028470075897346e+01,2.688274844189573187e-01,1.474028470075897346e+01,-3.277154670641986289e-01,1.474028470075897346e+01,-1.121745804211551523e+01
1.486784368183144700e+01,2.669587575611709340e-01,1.486784368183144700e+01,-3.253099777508028367e-01,1.486784368183144700e+01,-1.119008559144938353e+01
1.499540266290392054e+01,2.655086386483007654e-01,1.499540266290392054e+01,-3.239718241357343320e-01,1.499540266290392054e+01,-1.116278146935577276e+01
1.512296164397639409e+01,2.640542024255243536e-01,1.512296164397639409e+01,-3.225417324764261462e-01,1.512296164397639409e+01,-1.113586445308482631e+01
1.525052062504886763e+01,2.622153394548807359e-01,1.525052062504886763e+01,-3.200298839184556599e-01,1.525052062504886763e+01,-1.110962020834854513e+01
1.537807960612134117e+01,2.599003406406115158e-01,1.537807960612134117e+01,-3.162521795799206892e-01,1.537807960612134117e+01,-1.108411146561230254e+01
1.551948013123712933e+01,2.570669856086649219e-01,1.551948013123712933e+01,-3.114240956766907154e-01,1.551948013123712933e+01,-1.105645778868624696e+01
1.566088065635291748e+01,2.544735326725140467e-01,1.566088065635291748e+01,-3.073276870889771750e-01,1.566088065635291748e+01,-1.102903933761897903e+01
1.568643511627645459e+01,2.540779171752274301e-01,1.568643511627645459e+01,-3.067867473201002504e-01,1.568643511627645459e+01,-1.102407138404338482e+01
1.571198957619999170e+01,2.537004341374544669e-01,1.571198957619999170e+01,-3.062941095390740998e-01,1.571198957619999170e+01,-1.101910290158919281e+01
1.573754403612352881e+01,2.533375426417436849e-01,1.573754403612352881e+01,-3.058399331790897513e-01,1.573754403612352881e+01,-1.101413671986421505e+01
1.576309849604706592e+01,2.529877574522483297e-01,1.576309849604706592e+01,-3.054198880401002292e-01,1.576309849604706592e+01,-1.100917402354557240e+01
1.578865295597060303e+01,2.526499943163080797e-01,1.578865295597060303e+01,-3.050307409291388439e-01,1.578865295597060303e+01,-1.100421567517068588e+01
1.583976187581767725e+01,2.520021554003235575e-01,1.583976187581767725e+01,-3.043217202564920676e-01,1.583976187581767725e+01,-1.099431872579908287e+01
1.589087079566475147e+01,2.513784949009651992e-01,1.589087079566475147e+01,-3.036696791833333187e-01,1.589087079566475147e+01,-1.098445832534814670e+01
1.594197971551182569e+01,2.512458483460642267e-01,1.594197971551182569e+01,-3.026870112378654554e-01,1.594197971551182569e+01,-1.097466977618610962e+01
1.599308863535889991e+01,2.549127373208541769e-01,1.599308863535889991e+01,-2.989531699680529897e-01,1.599308863535889991e+01,-1.096500075743704983e+01
1.605802482465272618e+01,2.587068101693992261e-01,1.605802482465272618e+01,-2.946849672218752048e-01,1.605802482465272618e+01,-1.095284041227934679e+01
1.610906677694209677e+01,2.607724285936838804e-01,1.610906677694209677e+01,-2.918544893350283331e-01,1.610906677694209677e+01,-1.094339032004168821e+01
1.616010872923146735e+01,2.618171242012359290e-01,1.616010872923146735e+01,-2.896265352960822881e-01,1.616010872923146735e+01,-1.093404412186104402e+01
1.621115068152083794e+01,2.617677593739686781e-01,1.621115068152083794e+01,-2.880558875354881643e-01,1.621115068152083794e+01,-1.092480373257059156e+01
1.627351930903823884e+01,2.602722394776204595e-01,1.627351930903823884e+01,-2.870139451867417257e-01,1.627351930903823884e+01,-1.091365163658688253e+01
1.633588793655563975e+01,2.574498228347936735e-01,1.633588793655563975e+01,-2.867975530298392250e-01,1.633588793655563975e+01,-1.090263798645054472e+01
1.639825656407304066e+01,2.536777366521172361e-01,1.639825656407304066e+01,-2.871884032723288627e-01,1.639825656407304066e+01,-1.089174252945981536e+01
1.646062519159044157e+01,2.494053228516766030e-01,1.646062519159044157e+01,-2.879194613274629333e-01,1.646062519159044157e+01,-1.088094169107421827e+01
1.651139043708782239e+01,2.458479457032778370e-01,1.651139043708782239e+01,-2.885908237735610449e-01,1.651139043708782239e+01,-1.087220500086591812e+01
1.656215568258520321e+01,2.424938123747768515e-01,1.656215568258520321e+01,-2.891625161822308776e-01,1.656215568258520321e+01,-1.086350290808331920e+01
1.661292092808258403e+01,2.395476574070474207e-01,1.661292092808258403e+01,-2.895070818858589412e-01,1.661292092808258403e+01,-1.085482458457956589e+01
1.669208342992096661e+01,2.360537501644821567e-01,1.669208342992096661e+01,-2.894102195977246161e-01,1.669208342992096661e+01,-1.084132324359639554e+01
1.677124593175934919e+01,2.342360019901608137e-01,1.677124593175934919e+01,-2.883199416528481329e-01,1.677124593175934919e+01,-1.082784238081051953e+01
1.685040843359773177e+01,2.341377002359557036e-01,1.685040843359773177e+01,-2.861904330138660413e-01,1.685040843359773177e+01,-1.081438003965186567e+01
1.692957093543611435e+01,2.354143762304095056e-01,1.692957093543611435e+01,-2.832166808379490419e-01,1.692957093543611435e+01,-1.080095528549230544e+01
1.702269885141595651e+01,2.379122398141790828e-01,1.702269885141595651e+01,-2.790904719892752794e-01,1.702269885141595651e+01,-1.078525283574095539e+01
1.711582676739579867e+01,2.404279573373424572e-01,1.711582676739579867e+01,-2.749249507571440709e-01,1.711582676739579867e+01,-1.076970764136634706e+01
1.720895468337564083e+01,2.418908903513807829e-01,1.720895468337564083e+01,-2.713759272821110180e-01,1.720895468337564083e+01,-1.075437977696940273e+01
1.730208259935548298e+01,2.417043969876553344e-01,1.730208259935548298e+01,-2.688604155748985924e-01,1.730208259935548298e+01,-1.073941220634807792e+01
1.739521051533532514e+01,2.398114079082787065e-01,1.739521051533532514e+01,-2.674073699430032924e-01,1.739521051533532514e+01,-1.072475069383077617e+01
1.748833843131516730e+01,2.366237022137716028e-01,1.748833843131516730e+01,-2.667615558866729408e-01,1.748833843131516730e+01,-1.071030934582889849e+01
1.758146634729500946e+01,2.328306612245083507e-01,1.758146634729500946e+01,-2.665200440719348585e-01,1.758146634729500946e+01,-1.069604377414707130e+01
1.767459426327485161e+01,2.291611665310147039e-01,1.767459426327485161e+01,-2.662481831110348196e-01,1.767459426327485161e+01,-1.068190658578000907e+01
1.777795378990721176e+01,2.259445418718977194e-01,1.777795378990721176e+01,-2.654757732426467065e-01,1.777795378990721176e+01,-1.066631990419710796e+01
1.788131331653957190e+01,2.240401210183113889e-01,1.788131331653957190e+01,-2.639429901505074838e-01,1.788131331653957190e+01,-1.065081529233236957e+01
1.798467284317193204e+01,2.233996758782885728e-01,1.798467284317193204e+01,-2.616576874555782695e-01,1.798467284317193204e+01,-1.063539625782887477e+01
1.808803236980429219e+01,2.236129138262632488e-01,1.808803236980429219e+01,-2.588512256128945310e-01,1.808803236980429219e+01,-1.062009017143218337e+01
1.819139189643665233e+01,2.241291669990879143e-01,1.819139189643665233e+01,-2.558494954208136996e-01,1.819139189643665233e+01,-1.060493316891865945e+01
1.829475142306901247e+01,2.244380090094950653e-01,1.829475142306901247e+01,-2.529631160603327267e-01,1.829475142306901247e+01,-1.058995813997082713e+01
1.847758978364132076e+01,2.233755826355046104e-01,1.847758978364132076e+01,-2.488306278541654315e-01,1.847758978364132076e+01,-1.056398285082094546e+01
1.862396957378057749e+01,2.208927552826800422e-01,1.862396957378057749e+01,-2.465468168731819176e-01,1.862396957378057749e+01,-1.054366363580037813e+01
1.877034936391983422e+01,2.176096495283701415e-01,1.877034936391983422e+01,-2.448049123093323232e-01,1.877034936391983422e+01,-1.052371552315057457e+01
1.891672915405909094e+01,2.144742369613514832e-01,1.891672915405909094e+01,-2.430328425008525528e-01,1.891672915405909094e+01,-1.050406587972308259e+01
1.906310894419834767e+01,2.121080277018996263e-01,1.906310894419834767e+01,-2.408416160536868134e-01,1.906310894419834767e+01,-1.048466557281690825e+01
1.920948873433760440e+01,2.105210621378943436e-01,1.920948873433760440e+01,-2.382112768001065639e-01,1.920948873433760440e+01,-1.046551038532552802e+01
1.935586852447686113e+01,2.093092735344903588e-01,1.935586852447686113e+01,-2.353761956995579219e-01,1.935586852447686113e+01,-1.044662868380499177e+01
1.950224831461611785e+01,2.080418134471626601e-01,1.950224831461611785e+01,-2.325899379973845882e-01,1.950224831461611785e+01,-1.042805295228993145e+01
1.964862810475537458e+01,2.065374890174709321e-01,1.964862810475537458e+01,-2.299611477618279665e-01,1.964862810475537458e+01,-1.040979565449623578e+01
1.979500789489463131e+01,2.048731621457644536e-01,1.979500789489463131e+01,-2.274503580700972805e-01,1.979500789489463131e+01,-1.039184571401857582e+01
1.995724979897986273e+01,2.029441611083528940e-01,1.995724979897986273e+01,-2.247581392347344220e-01,1.995724979897986273e+01,-1.037229269379654895e+01
2.011949170306509416e+01,2.009733334664636217e-01,2.011949170306509416e+01,-2.221496984722941548e-01,2.011949170306509416e+01,-1.035308520893892492e+01
2.028173360715032558e+01,1.989360320499171664e-01,2.028173360715032558e+01,-2.196469140460068914e-01,2.028173360715032558e+01,-1.033421831837290306e+01
2.044397551123555701e+01,1.968182538995191244e-01,2.044397551123555701e+01,-2.172502093499879550e-01,2.044397551123555701e+01,-1.031569137270943948e+01
2.060621741532078843e+01,1.946720272769839610e-01,2.060621741532078843e+01,-2.149110060864143357e-01,2.060621741532078843e+01,-1.029750083779681802e+01
2.081295916885528285e+01,1.920777326374580873e-01,2.081295916885528285e+01,-2.119248039496470781e-01,2.081295916885528285e+01,-1.027487180786843979e+01
2.101970092238977728e+01,1.898234220030015074e-01,2.101970092238977728e+01,-2.088992456820033539e-01,2.101970092238977728e+01,-1.025297381627407312e+01
2.122644267592427170e+01,1.878137813574087822e-01,2.122644267592427170e+01,-2.057803318153825778e-01,2.122644267592427170e+01,-1.023153345011897386e+01
2.143318442945876612e+01,1.858589907821968090e-01,2.143318442945876612e+01,-2.027172089123712162e-01,2.143318442945876612e+01,-1.021054735172690897e+01
2.163992618299326054e+01,1.837411996112949808e-01,2.163992618299326054e+01,-1.998517414816878279e-01,2.163992618299326054e+01,-1.019002619436430379e+01
2.184666793652775496e+01,1.813944339444089060e-01,2.184666793652775496e+01,-1.972051231829223816e-01,2.184666793652775496e+01,-1.016997701926055520e+01
2.205340969006224938e+01,1.789563676124643621e-01,2.205340969006224938e+01,-1.946656189511331014e-01,2.205340969006224938e+01,-1.015038778029591882e+01
2.226015144359674380e+01,1.766352681598370999e-01,2.226015144359674380e+01,-1.920951441367000356e-01,2.226015144359674380e+01,-1.013122947841305077e+01
2.246689319713123822e+01,1.745331317333111976e-01,2.246689319713123822e+01,-1.894442236752884590e-01,2.246689319713123822e+01,-1.011247306838443016e+01
2.267363495066573265e+01,1.725906035407791528e-01,2.267363495066573265e+01,-1.867705721038954714e-01,2.267363495066573265e+01,-1.009410400824665643e+01
2.288037670420022707e+01,1.706754903679335023e-01,2.288037670420022707e+01,-1.841657241399548006e-01,2.288037670420022707e+01,-1.007612191434531468e+01
2.308711845773472149e+01,1.687019217836986940e-01,2.308711845773472149e+01,-1.816763733564812355e-01,2.308711845773472149e+01,-1.005852891711729669e+01
2.331463266138977275e+01,1.664662118625890308e-01,2.331463266138977275e+01,-1.790526186102479045e-01,2.331463266138977275e+01,-1.003961076376682016e+01
2.354214686504482401e+01,1.642283831388282600e-01,2.354214686504482401e+01,-1.764968996195692696e-01,2.354214686504482401e+01,-1.002113759128207349e+01
2.376966106869987527e+01,1.620374086320159890e-01,2.376966106869987527e+01,-1.739741884453471776e-01,2.376966106869987527e+01,-1.000308634147513942e+01
2.399717527235492653e+01,1.598920865155073479e-01,2.399717527235492653e+01,-1.714840678657250095e-01,2.399717527235492653e+01,-9.985437626395567534e+00
2.422468947600997780e+01,1.577663306143017863e-01,2.422468947600997780e+01,-1.690371320547559009e-01,2.422468947600997780e+01,-9.968176958511190122e+00
2.445220367966502906e+01,1.556447440537076510e-01,2.445220367966502906e+01,-1.666299832630513400e-01,2.445220367966502906e+01,-9.951291354178506410e+00
2.473387786881134076e+01,1.530214802794773732e-01,2.473387786881134076e+01,-1.636809493239699265e-01,2.473387786881134076e+01,-9.930884974271336318e+00
2.501555205795765247e+01,1.505247418594297670e-01,2.501555205795765247e+01,-1.608550171165497034e-01,2.501555205795765247e+01,-9.911196279211237581e+00
2.529722624710396417e+01,1.480099490526511907e-01,2.529722624710396417e+01,-1.579901518651971593e-01,2.529722624710396417e+01,-9.891981481601058945e+00
2.557890043625027587e+01,1.454162712945250568e-01,2.557890043625027587e+01,-1.550677019081931896e-01,2.557890043625027587e+01,-9.873225196817372762e+00
2.586057462539658758e+01,1.426796021307201734e-01,2.586057462539658758e+01,-1.520679396186768173e-01,2.586057462539658758e+01,-9.854934705902085312e+00
2.614224881454289928e+01,1.397528940644736650e-01,2.614224881454289928e+01,-1.489472964923828080e-01,2.614224881454289928e+01,-9.837129791802302847e+00
2.649362198462399576e+01,1.357893424091307644e-01,2.649362198462399576e+01,-1.447893442968815059e-01,2.649362198462399576e+01,-9.815652221664883825e+00
2.684499515470509223e+01,1.314214423340480664e-01,2.684499515470509223e+01,-1.402131730994473635e-01,2.684499515470509223e+01,-9.795097344228929970e+00
2.719636832478618871e+01,1.265626589822019810e-01,2.719636832478618871e+01,-1.351054144152676884e-01,2.719636832478618871e+01,-9.775654680192980450e+00
2.754774149486728518e+01,1.211130686420784919e-01,2.754774149486728518e+01,-1.293879518366973791e-01,2.754774149486728518e+01,-9.757608585115473687e+00
2.789911466494838166e+01,1.150041334066056464e-01,2.789911466494838166e+01,-1.230227712236491300e-01,2.789911466494838166e+01,-9.741348328768800968e+00
2.825048783502947813e+01,1.082453881314635602e-01,2.825048783502947813e+01,-1.160291937125736972e-01,2.825048783502947813e+01,-9.727367201559287579e+00
2.860186100511057461e+01,1.009599051627385613e-01,2.860186100511057461e+01,-1.085219103944559116e-01,2.860186100511057461e+01,-9.716243160687684011e+00
2.895323417519167108e+01,9.341099032432698124e-02,2.895323417519167108e+01,-1.007592276529643005e-01,2.895323417519167108e+01,-9.708587177083522590e+00
2.930460734527276756e+01,8.602254289195210291e-02,2.930460734527276756e+01,-9.317837528705452677e-02,2.930460734527276756e+01,-9.704943965960556085e+00
2.965598051535386404e+01,7.937880392168417121e-02,2.965598051535386404e+01,-8.639392785110555639e-02,2.965598051535386404e+01,-9.705636363165023539e+00
2.989221950755204205e+01,7.567746705006800356e-02,2.989221950755204205e+01,-8.264509248603379987e-02,2.989221950755204205e+01,-9.708515257888059580e+00
2.990000000000000213e+01,7.556917436002622002e-02,2.990000000000000213e+01,-8.253602697106010577e-02,2.990000000000000213e+01,-9.708640998592372284e+00
2.991406562496792176e+01,7.537572254960669960e-02,2.991406562496792176e+01,-8.234132863088988730e-02,2.991406562496792176e+01,-9.708876674668351470e+00
2.992813124993584140e+01,7.518544611380517662e-02,2.992813124993584140e+01,-8.214997588316286237e-02,2.992813124993584140e+01,-9.709118140068513370e+00
2.995626249987167711e+01,7.481465039644442927e-02,2.995626249987167711e+01,-8.177761859388343879e-02,2.995626249987167711e+01,-9.709611632162152617e+00
2.998439374980751282e+01,7.445696567217625905e-02,2.998439374980751282e+01,-8.141907267330840414e-02,2.998439374980751282e+01,-9.710129009827273450e+00
3.001252499974334853e+01,7.411272864032823759e-02,3.001252499974334853e+01,-8.107468631271308457e-02,3.001252499974334853e+01,-9.710669753493483825e+00
3.019505543358427246e+01,7.222764665981584731e-02,3.019505543358427246e+01,-7.920672260178451829e-02,3.019505543358427246e+01,-9.714709864040241172e+00
3.037758586742519640e+01,7.099991868769484071e-02,3.037758586742519640e+01,-7.802871950934131551e-02,3.037758586742519640e+01,-9.719513051672000969e+00
3.056011630126612033e+01,7.048325467230143193e-02,3.056011630126612033e+01,-7.759511807895702606e-02,3.056011630126612033e+01,-9.724838824961562267e+00
3.074264673510704426e+01,7.069683649480196230e-02,3.074264673510704426e+01,-7.792378693413426483e-02,3.074264673510704426e+01,-9.730380005577581315e+00
3.090000000000000213e+01,7.145048091028383119e-02,3.090000000000000213e+01,-7.879952911873444599e-02,3.090000000000000213e+01,-9.735058882542514169e+00
3.091727689169276516e+01,7.165555498377103483e+00,3.091727689169276516e+01,-7.670985047962064485e+00,3.091727689169276516e+01,-5.347743507653205164e+00
3.093455378338552819e+01,7.110699183122542344e+00,3.093455378338552819e+01,-7.612440959587688738e+00,3.093455378338552819e+01,-5.333809825476200750e+00
3.096910756677105070e+01,7.002645286655805990e+00,3.096910756677105070e+01,-7.497126590809988222e+00,3.096910756677105070e+01,-5.306318227311904501e+00
3.100366135015657321e+01,6.897316916170102452e+00,3.100366135015657321e+01,-7.384728725002967842e+00,3.100366135015657321e+01,-5.279293654160619020e+00
3.103821513354209571e+01,6.794627209477751784e+00,3.103821513354209571e+01,-7.275154434680727533e+00,3.103821513354209571e+01,-5.252715883376243511e+00
3.126708923363669967e+01,6.175477263216820667e+00,3.126708923363669967e+01,-6.614682249339521647e+00,3.126708923363669967e+01,-5.086596760936893169e+00
3.149596333373130363e+01,5.647719697783599280e+00,3.149596333373130363e+01,-6.052015651601675650e+00,3.149596333373130363e+01,-4.934398951632307906e+00
3.172483743382590760e+01,5.194927295249626376e+00,3.172483743382590760e+01,-5.569585059992962606e+00,3.172483743382590760e+01,-4.792234116571667535e+00
3.195371153392051156e+01,4.804045349967787537e+00,3.195371153392051156e+01,-5.153430232577059122e+00,3.195371153392051156e+01,-4.657042448006139423e+00
3.230262335581448951e+01,4.304110922198329803e+00,3.230262335581448951e+01,-4.621764692152134479e+00,3.230262335581448951e+01,-4.459109271921628981e+00
3.265153517770846747e+01,3.895493362842864737e+00,3.265153517770846747e+01,-4.187930482231107199e+00,3.265153517770846747e+01,-4.265685916748098272e+00
3.300044699960244543e+01,3.556901571860714206e+00,3.300044699960244543e+01,-3.829171225141063228e+00,3.300044699960244543e+01,-4.072715923694263829e+00
3.334935882149642339e+01,3.272181641359573234e+00,3.334935882149642339e+01,-3.528220755222664984e+00,3.334935882149642339e+01,-3.877880177740437251e+00
3.369827064339040135e+01,3.029058078472319337e+00,3.369827064339040135e+01,-3.271955113354605427e+00,3.369827064339040135e+01,-3.680163341130020083e+00
3.425680099747879126e+01,2.703686518142236928e+00,3.425680099747879126e+01,-2.930383289602704000e+00,3.425680099747879126e+01,-3.357945363572707453e+00
3.481533135156718117e+01,2.433669108574762596e+00,3.481533135156718117e+01,-2.648461072440752240e+00,3.481533135156718117e+01,-3.032091222623835236e+00
3.537386170565557109e+01,2.200913239402417787e+00,3.537386170565557109e+01,-2.406747390559083044e+00,3.537386170565557109e+01,-2.708582778110739220e+00
3.593239205974396100e+01,1.993947168620848087e+00,3.593239205974396100e+01,-2.192853480525765342e+00,3.593239205974396100e+01,-2.394024359611724329e+00
3.649092241383235091e+01,1.805741464234736471e+00,3.649092241383235091e+01,-1.999128222844733127e+00,3.649092241383235091e+01,-2.094427426711646945e+00
3.721408820737426026e+01,1.583403496941299116e+00,3.721408820737426026e+01,-1.771066992844958721e+00,3.721408820737426026e+01,-1.736345803363376517e+00
3.793725400091616962e+01,1.381071042750622979e+00,3.793725400091616962e+01,-1.564098518720130837e+00,3.793725400091616962e+01,-1.417716641848073555e+00
3.866041979445807897e+01,1.196650343516622028e+00,3.866041979445807897e+01,-1.375780580881247772e+00,3.866041979445807897e+01,-1.141134277551519638e+00
3.938358558799998832e+01,1.029187561515730431e+00,3.938358558799998832e+01,-1.204952045641884961e+00,3.938358558799998832e+01,-9.060251116747504163e-01
4.010675138154189767e+01,8.780656707209614220e-01,4.010675138154189767e+01,-1.050870771802086656e+00,4.010675138154189767e+01,-7.096474576421594183e-01
4.082991717508380702e+01,7.426313513051232551e-01,4.082991717508380702e+01,-9.128052038461712536e-01,4.082991717508380702e+01,-5.480220092605320170e-01
4.155308296862571638e+01,6.220709215423210203e-01,4.155308296862571638e+01,-7.898902222455810307e-01,4.155308296862571638e+01,-4.166381982290800479e-01
4.227624876216762573e+01,5.154048208896691019e-01,4.227624876216762573e+01,-6.811099944323445454e-01,4.227624876216762573e+01,-3.109508501327885033e-01
4.340824477727041852e+01,3.736901938069182028e-01,4.340824477727041852e+01,-5.365042371953617772e-01,4.340824477727041852e+01,-1.870522219350135296e-01
4.454024079237321132e+01,2.588560999312832789e-01,4.454024079237321132e+01,-4.192183944031275811e-01,4.454024079237321132e+01,-1.016911200125348858e-01
4.567223680747600412e+01,1.665459939149662727e-01,4.567223680747600412e+01,-3.248279070048046835e-01,4.567223680747600412e+01,-4.377889950778472011e-02
4.680423282257879691e+01,9.278138680301821484e-02,4.680423282257879691e+01,-2.492965041645780755e-01,4.680423282257879691e+01,-4.995080489956395600e-03
4.793622883768158971e+01,3.409336925097179033e-02,4.793622883768158971e+01,-1.891050031149104083e-01,4.793622883768158971e+01,2.065649079074576358e-02
4.902958461325174255e+01,-1.103021240230929977e-02,4.902958461325174255e+01,-1.427382116793969036e-01,4.902958461325174255e+01,3.694112613884563412e-02
5.012294038882189540e+01,-4.701180377158147017e-02,5.012294038882189540e+01,-1.056844906656721761e-01,5.012294038882189540e+01,4.758724730370879341e-02
5.121629616439204824e+01,-7.564713466177463985e-02,5.121629616439204824e+01,-7.611909274946249138e-02,5.121629616439204824e+01,5.442464146161679617e-02
5.230965193996220108e+01,-9.839656590948767101e-02,5.230965193996220108e+01,-5.255709086359620918e-02,5.230965193996220108e+01,5.871115881933269137e-02
5.340300771553235393e+01,-1.164400805003637657e-01,5.340300771553235393e+01,-3.379789866956201677e-02,5.340300771553235393e+01,6.130653033549370023e-02
5.478366813739898333e+01,-1.339589212266885376e-01,5.478366813739898333e+01,-1.548722848528879918e-02,5.478366813739898333e+01,6.304490030071793760e-02
5.616432855926561274e+01,-1.469633846316258652e-01,5.616432855926561274e+01,-1.789976355931749332e-03,5.616432855926561274e+01,6.372327982213364661e-02
5.754498898113224215e+01,-1.565823324734734456e-01,5.754498898113224215e+01,8.444652331973535875e-03,5.754498898113224215e+01,6.380693167657564002e-02
5.892564940299887155e+01,-1.636643064462433572e-01,5.892564940299887155e+01,1.608234587523226650e-02,5.892564940299887155e+01,6.356369815906391663e-02
6.030630982486550096e+01,-1.658750245210378060e-01,6.030630982486550096e+01,2.392735794725543708e-02,6.030630982486550096e+01,6.447891327854191057e-02
6.101720608561002024e+01,-1.614121025336132664e-01,6.101720608561002024e+01,3.101296668685653291e-02,6.101720608561002024e+01,6.709494246308458920e-02
6.172810234635453952e+01,-1.576051029180836061e-01,6.172810234635453952e+01,3.705001468019143707e-02,6.172810234635453952e+01,6.885421583465631268e-02
6.243899860709905880e+01,-1.542954668580852340e-01,6.243899860709905880e+01,4.223338221450074342e-02,6.243899860709905880e+01,7.005271130174101080e-02
6.314989486784357808e+01,-1.514124408824084889e-01,6.314989486784357808e+01,4.668302766737592036e-02,6.314989486784357808e+01,7.084888665849696510e-02
6.388149003955661698e+01,-1.488282015118013446e-01,6.388149003955661698e+01,5.060831878446327842e-02,6.388149003955661698e+01,7.134950516104895946e-02
6.461308521126964877e+01,-1.465833863194790088e-01,6.461308521126964877e+01,5.395440494383712399e-02,6.461308521126964877e+01,7.160245599263884153e-02
6.534468038298268766e+01,-1.446300528677280373e-01,6.534468038298268766e+01,5.680409062433311451e-02,6.534468038298268766e+01,7.167538823541381998e-02
6.725119956019577216e+01,-1.406546560060354667e-01,6.725119956019577216e+01,6.233647624699693163e-02,6.725119956019577216e+01,7.130587973239910227e-02
6.915771873740885667e+01,-1.378046469659094941e-01,6.915771873740885667e+01,6.596752833457071585e-02,6.915771873740885667e+01,7.060945371324597875e-02
7.106423791462194117e+01,-1.357231967765711311e-01,7.106423791462194117e+01,6.830704463186697273e-02,7.106423791462194117e+01,6.975124646315374044e-02
7.297075709183502568e+01,-1.341705508602906716e-01,7.297075709183502568e+01,6.976276125376805470e-02,7.297075709183502568e+01,6.874694729497458912e-02
7.559347251205829821e+01,-1.325857450421503714e-01,7.559347251205829821e+01,7.085690976607519898e-02,7.559347251205829821e+01,6.733561101053975317e-02
7.821618793228157074e+01,-1.313826369988357334e-01,7.821618793228157074e+01,7.133735425231270411e-02,7.821618793228157074e+01,6.604119828671393966e-02
8.083890335250484327e+01,-1.304141183069066068e-01,8.083890335250484327e+01,7.145176141315057183e-02,8.083890335250484327e+01,6.479010278115920896e-02
8.346161877272811580e+01,-1.295880687092023087e-01,8.346161877272811580e+01,7.135374156587036276e-02,8.346161877272811580e+01,6.348086178926196088e-02
8.542344054238148487e+01,-1.290256590191712627e-01,8.542344054238148487e+01,7.120613534663437771e-02,8.542344054238148487e+01,6.252624405317219747e-02
8.738526231203485395e+01,-1.284977035956930413e-01,8.738526231203485395e+01,7.101768426296321823e-02,8.738526231203485395e+01,6.164239102465769726e-02
8.934708408168822302e+01,-1.279935334983495487e-01,8.934708408168822302e+01,7.080540970760418329e-02,8.934708408168822302e+01,6.079467238210903290e-02
9.006116940021729533e+01,-1.278145383557532655e-01,9.006116940021729533e+01,7.072434406231235815e-02,9.006116940021729533e+01,6.048634118124100734e-02
9.077525471874636764e+01,-1.276375079401007306e-01,9.077525471874636764e+01,7.064194201779139259e-02,9.077525471874636764e+01,6.017698443454948254e-02
9.148934003727543995e+01,-1.232255117543661765e-01,9.148934003727543995e+01,5.957671177665735396e-02,9.148934003727543995e+01,6.007942387323143840e-02
9.197950977514042847e+01,-1.119569351138350599e-01,9.197950977514042847e+01,3.061784547326810990e-02,9.197950977514042847e+01,6.049591106310465288e-02
9.246967951300541699e+01,-1.018282538821605743e-01,9.246967951300541699e+01,4.609207983551457874e-03,9.246967951300541699e+01,6.091926905821905963e-02
9.295984925087040551e+01,-9.272396459990100981e-02,9.295984925087040551e+01,-1.874681627480767263e-02,9.295984925087040551e+01,6.131526589568424973e-02
9.394018872660036834e+01,-7.721889996720568416e-02,9.394018872660036834e+01,-5.845485454104239892e-02,9.394018872660036834e+01,6.195233217965055023e-02
9.492052820233033117e+01,-6.466452913953538162e-02,9.492052820233033117e+01,-9.051496822425311728e-02,9.492052820233033117e+01,6.234372442450469842e-02
9.590086767806029400e+01,-5.451534514734936165e-02,9.590086767806029400e+01,-1.163393401983050107e-01,9.590086767806029400e+01,6.250085079361000773e-02
9.688120715379025683e+01,-4.631481289475532226e-02,9.688120715379025683e+01,-1.371111707612787667e-01,9.688120715379025683e+01,6.246169649243374367e-02
9.834823046967900950e+01,-3.689538242809758256e-02,9.834823046967900950e+01,-1.608005704985268902e-01,9.834823046967900950e+01,6.213423235878691442e-02
9.981525378556776218e+01,-3.004203583789219478e-02,9.981525378556776218e+01,-1.778396868047998625e-01,9.981525378556776218e+01,6.160855524042688214e-02
1.012822771014565149e+02,-2.505913601105409436e-02,1.012822771014565149e+02,-1.900342860047851690e-01,1.012822771014565149e+02,6.097383256295235004e-02
1.027493004173452675e+02,-2.143728655017212645e-02,1.027493004173452675e+02,-1.987066986267889968e-01,1.027493004173452675e+02,6.028760992425812731e-02
1.046974356721013493e+02,-1.809363535964518890e-02,1.046974356721013493e+02,-2.064345642446678009e-01,1.046974356721013493e+02,5.936659421766002365e-02
1.058635166074899274e+02,-1.667806466894694237e-02,1.058635166074899274e+02,-2.095483222887120633e-01,1.058635166074899274e+02,5.882169664267167253e-02
1.060967327945676431e+02,-1.643551738874940785e-02,1.060967327945676431e+02,-2.100665316678880512e-01,1.060967327945676431e+02,5.871354150581871434e-02
1.063299489816453587e+02,-1.620478413205783674e-02,1.063299489816453587e+02,-2.105543306871772435e-01,1.063299489816453587e+02,5.860603410801890067e-02
1.065631651687230743e+02,-1.920136538881580743e-02,1.065631651687230743e+02,-1.966548256098979153e-01,1.065631651687230743e+02,5.799873917301441584e-02
1.068604749240119389e+02,-2.330704922298710430e-02,1.068604749240119389e+02,-1.776938497571540487e-01,1.068604749240119389e+02,5.728697608179848799e-02
1.071577846793008035e+02,-2.714928474775995387e-02,1.071577846793008035e+02,-1.599441484218460108e-01,1.071577846793008035e+02,5.672095267906265142e-02
1.074550944345896681e+02,-3.074494285739359095e-02,1.074550944345896681e+02,-1.433275281173626292e-01,1.074550944345896681e+02,5.627270648258346497e-02
1.084450048955513353e+02,-4.111860352755806330e-02,1.084450048955513353e+02,-9.534039549001541158e-02,1.084450048955513353e+02,5.537993014456545071e-02
1.094349153565130024e+02,-4.943912140742808686e-02,1.094349153565130024e+02,-5.677052336845119646e-02,1.094349153565130024e+02,5.496035718284678767e-02
1.104248258174746695e+02,-5.610135950551292661e-02,1.104248258174746695e+02,-2.579984494887443969e-02,1.104248258174746695e+02,5.473044460819587870e-02
1.114147362784363366e+02,-6.142764089013191819e-02,1.114147362784363366e+02,-9.477722048059727912e-04,1.114147362784363366e+02,5.455832517013268351e-02
1.128376043086956457e+02,-6.726365514714223448e-02,1.128376043086956457e+02,2.644278462336844063e-02,1.128376043086956457e+02,5.427682654083758329e-02
1.142604723389549548e+02,-7.146782956505189077e-02,1.142604723389549548e+02,4.636365129276141112e-02,1.142604723389549548e+02,5.392052189093760745e-02
1.156833403692142639e+02,-7.447568556883166213e-02,1.156833403692142639e+02,6.080752140833618063e-02,1.156833403692142639e+02,5.350502569790312191e-02
1.171062083994735730e+02,-7.661746531205179678e-02,1.171062083994735730e+02,7.128509643821689945e-02,1.171062083994735730e+02,5.303514089836399575e-02
1.185290764297328820e+02,-7.812613332265515298e-02,1.185290764297328820e+02,7.886126402285907611e-02,1.185290764297328820e+02,5.253811120880203661e-02
1.205665962512859863e+02,-7.951587601598408828e-02,1.205665962512859863e+02,8.617435400013666313e-02,1.205665962512859863e+02,5.182852343604641560e-02
1.211673734360759624e+02,-7.723442224356057151e-02,1.211673734360759624e+02,8.525390034165541975e-02,1.211673734360759624e+02,5.117048468276365336e-02
1.217681506208659385e+02,-6.670774912406816914e-02,1.217681506208659385e+02,7.617328048823202025e-02,1.217681506208659385e+02,4.915529755049625332e-02
1.223689278056559147e+02,-5.761260203507649613e-02,1.223689278056559147e+02,6.833719477978962564e-02,1.223689278056559147e+02,4.766732471424663109e-02
1.229697049904458908e+02,-4.966350496272350923e-02,1.229697049904458908e+02,6.148697581637299625e-02,1.229697049904458908e+02,4.653010216296676882e-02
1.235965795488819481e+02,-4.241849110079889962e-02,1.235965795488819481e+02,5.524135045901978208e-02,1.235965795488819481e+02,4.560706092733077949e-02
1.242234541073180054e+02,-3.612371040777208331e-02,1.242234541073180054e+02,4.981295052013997443e-02,1.242234541073180054e+02,4.489577291909432194e-02
1.248503286657540627e+02,-3.065441811587123200e-02,1.248503286657540627e+02,4.509445458898343057e-02,1.248503286657540627e+02,4.433936060534417883e-02
1.261842128754046115e+02,-2.133044337659052367e-02,1.261842128754046115e+02,3.704396339677128169e-02,1.261842128754046115e+02,4.350939328754872132e-02
1.275180970850551603e+02,-1.438751308026613163e-02,1.275180970850551603e+02,3.104086002173243874e-02,1.275180970850551603e+02,4.292130057281632466e-02
1.288519812947056948e+02,-9.553739594183213377e-03,1.288519812947056948e+02,2.694034887959331770e-02,1.288519812947056948e+02,4.251556100630304869e-02
1.301858655043562294e+02,-6.365927452027882530e-03,1.301858655043562294e+02,2.434085997294339540e-02,1.301858655043562294e+02,4.223073976127360296e-02
1.321481256879778243e+02,-3.100290511548814496e-03,1.321481256879778243e+02,2.165648623836614883e-02,1.321481256879778243e+02,4.179987632620150301e-02
1.341103858715994193e+02,-9.796377084384467939e-04,1.341103858715994193e+02,1.989242109005901968e-02,1.341103858715994193e+02,4.135690469172719624e-02
1.350000000000000000e+02,-1.980117396144605768e-04,1.350000000000000000e+02,1.934959172332072902e-02,1.350000000000000000e+02,4.115016247193702820e-02
1.350471823638775390e+02,-1.665919041965846622e-04,1.350471823638775390e+02,1.932193962198026568e-02,1.350471823638775390e+02,4.114116964371507951e-02
1.350943647277550781e+02,-1.355037535730042701e-04,1.350943647277550781e+02,1.929456685501962712e-02,1.350943647277550781e+02,4.113215763577876549e-02
1.360000000000000000e+02,-2.563772461327332858e-03,1.360000000000000000e+02,1.769740476423380809e-02,1.360000000000000000e+02,4.123906771450736031e-02
1.360011919998995040e+02,-4.809278844614117004e-02,1.360011919998995040e+02,3.312410103101285919e-01,1.360011919998995040e+02,1.266203382368351669e+02
1.360023839997990081e+02,-4.773497468725802773e-02,1.360023839997990081e+02,3.280476620347731465e-01,1.360023839997990081e+02,1.253523890431282837e+02
1.360047679995980161e+02,-4.703003556237735083e-02,1.360047679995980161e+02,3.217692299980894899e-01,1.360047679995980161e+02,1.228595232806604116e+02
1.360071519993970242e+02,-4.634361343577125120e-02,1.360071519993970242e+02,3.156722428881926779e-01,1.360071519993970242e+02,1.204389845745435110e+02
1.360095359991960322e+02,-4.567503769517343437e-02,1.360095359991960322e+02,3.097497598344211012e-01,1.360095359991960322e+02,1.180880014659629609e+02
1.360227058009902805e+02,-4.227678041016629668e-02,1.360227058009902805e+02,2.799023713969041038e-01,1.360227058009902805e+02,1.062443450717854887e+02
1.360358756027845288e+02,-3.931147120497972131e-02,1.360358756027845288e+02,2.542328264278935213e-01,1.360358756027845288e+02,9.606520534861621741e+01
1.360490454045787772e+02,-3.670618893710840547e-02,1.360490454045787772e+02,2.319975605620525905e-01,1.360490454045787772e+02,8.725385143439947910e+01
1.360622152063730255e+02,-3.440277228545192412e-02,1.360622152063730255e+02,2.126093332580351603e-01,1.360622152063730255e+02,7.957599619336826891e+01
1.360822637306943363e+02,-3.137263470924046838e-02,1.360822637306943363e+02,1.875304171987905721e-01,1.360822637306943363e+02,6.965327077673106260e+01
1.361023122550156472e+02,-2.880875308477873209e-02,1.361023122550156472e+02,1.667294990455099879e-01,1.361023122550156472e+02,6.143228917696620783e+01
1.361223607793369581e+02,-2.661695683641887578e-02,1.361223607793369581e+02,1.492863627984521435e-01,1.361223607793369581e+02,5.454633884210769423e+01
1.361424093036582690e+02,-2.472565054633960036e-02,1.361424093036582690e+02,1.345116679507199764e-01,1.361424093036582690e+02,4.872079387494042635e+01
1.361624578279795799e+02,-2.308025428036806700e-02,1.361624578279795799e+02,1.218862852819602438e-01,1.361624578279795799e+02,4.374895500439779994e+01
1.361959731037924257e+02,-2.076688196138977080e-02,1.361959731037924257e+02,1.045313719666907532e-01,1.361959731037924257e+02,3.692659593999923828e+01
1.362294883796052716e+02,-1.887932852050240237e-02,1.362294883796052716e+02,9.075082575782024430e-02,1.362294883796052716e+02,3.152239636361257169e+01
1.362630036554181174e+02,-1.731496762683932059e-02,1.362630036554181174e+02,7.961768507052253974e-02,1.362630036554181174e+02,2.716778334860459054e+01
1.362965189312309633e+02,-1.600189424844133262e-02,1.362965189312309633e+02,7.049366853225895457e-02,1.362965189312309633e+02,2.360927855414977472e+01
1.363300342070438091e+02,-1.488738793646473407e-02,1.363300342070438091e+02,6.292054969464823400e-02,1.363300342070438091e+02,2.066499674887149851e+01
1.363635494828566550e+02,-1.393212299089298563e-02,1.363635494828566550e+02,5.656333519196171666e-02,1.363635494828566550e+02,1.820203547651625442e+01
1.364181854650568653e+02,-1.264199404570537887e-02,1.364181854650568653e+02,4.818709989161523016e-02,1.364181854650568653e+02,1.497327255123066614e+01
1.364728214472570755e+02,-1.160491227444419501e-02,1.364728214472570755e+02,4.163912826785395177e-02,1.364728214472570755e+02,1.246760028682163224e+01
1.365274574294572858e+02,-1.075764892224622890e-02,1.365274574294572858e+02,3.641819732913454538e-02,1.365274574294572858e+02,1.048659163508084013e+01
1.365820934116574961e+02,-1.005601518571898334e-02,1.365820934116574961e+02,3.218404097105140305e-02,1.365820934116574961e+02,8.895633072607814995e+00
1.366367293938577063e+02,-9.468209179710857307e-03,1.366367293938577063e+02,2.869874029089151610e-02,1.366367293938577063e+02,7.600615216224562154e+00
1.366913653760579166e+02,-8.970849130767382523e-03,1.366913653760579166e+02,2.579212159846252725e-02,1.366913653760579166e+02,6.534236826588073477e+00
1.367847205138329798e+02,-8.282375795372075300e-03,1.367847205138329798e+02,2.182610306980144535e-02,1.367847205138329798e+02,5.107293329472222254e+00
1.368780756516080430e+02,-7.746186613057002256e-03,1.368780756516080430e+02,1.877312771334608416e-02,1.368780756516080430e+02,4.040497878037041524e+00
1.369714307893831062e+02,-7.321384890905147623e-03,1.369714307893831062e+02,1.636446291574142689e-02,1.369714307893831062e+02,3.227262805554175440e+00
1.370647859271581694e+02,-6.980065126528264136e-03,1.370647859271581694e+02,1.442413406015174461e-02,1.370647859271581694e+02,2.597585505665084948e+00
1.371581410649332327e+02,-6.702504992605917353e-03,1.371581410649332327e+02,1.283275083927261362e-02,1.371581410649332327e+02,2.103707715900548170e+00
1.372514962027082959e+02,-6.474492218914777025e-03,1.372514962027082959e+02,1.150735720695360460e-02,1.372514962027082959e+02,1.712300531020031436e+00
1.373918863462194224e+02,-6.202563960697460299e-03,1.373918863462194224e+02,9.889564486848762687e-03,1.373918863462194224e+02,1.265908767248811184e+00
1.375322764897305490e+02,-5.993989123540537957e-03,1.375322764897305490e+02,8.604591122986319021e-03,1.375322764897305490e+02,9.421800539543349062e-01
1.376726666332416755e+02,-5.831832397291276601e-03,1.376726666332416755e+02,7.563880243717704260e-03,1.376726666332416755e+02,7.049788595531611968e-01
1.378130567767528021e+02,-5.704199118788680356e-03,1.378130567767528021e+02,6.707487199472456606e-03,1.378130567767528021e+02,5.296767663188504116e-01
1.379534469202639286e+02,-5.602619247670023034e-03,1.379534469202639286e+02,5.993779542000629568e-03,1.379534469202639286e+02,3.992061769376833991e-01
1.381648272243058670e+02,-5.485798772100479101e-03,1.381648272243058670e+02,5.124985629691203998e-03,1.381648272243058670e+02,2.618697075477021685e-01
1.383762075283478055e+02,-5.400315079022490958e-03,1.383762075283478055e+02,4.444225204427209100e-03,1.383762075283478055e+02,1.727712374078148039e-01
1.385875878323897439e+02,-5.336658187390593694e-03,1.385875878323897439e+02,3.904458519455068777e-03,1.385875878323897439e+02,1.145246212195888957e-01
1.387989681364316823e+02,-5.288537894215927272e-03,1.387989681364316823e+02,3.473057585504227881e-03,1.387989681364316823e+02,7.621053628098106714e-02
1.390103484404736207e+02,-5.251750459622896508e-03,1.390103484404736207e+02,3.126487564722977858e-03,1.390103484404736207e+02,5.102668320640385557e-02
1.392857203312460683e+02,-5.216060539122542410e-03,1.392857203312460683e+02,2.773732060353248548e-03,1.392857203312460683e+02,3.070188204257849607e-02
1.395610922220185159e+02,-5.190136141949300980e-03,1.395610922220185159e+02,2.506227794831190209e-03,1.395610922220185159e+02,1.884506461263138477e-02
1.398364641127909636e+02,-5.171007674321619410e-03,1.398364641127909636e+02,2.302712280481360955e-03,1.398364641127909636e+02,1.180884150861947167e-02
1.401118360035634112e+02,-5.156789920899199943e-03,1.401118360035634112e+02,2.147730198657552252e-03,1.401118360035634112e+02,7.729714905725416051e-03
1.404043289667210672e+02,-5.145477490068541167e-03,1.404043289667210672e+02,2.022471197033472948e-03,1.404043289667210672e+02,5.243125715654434540e-03
1.406968219298787233e+02,-5.137100033176569477e-03,1.406968219298787233e+02,1.928852726852626478e-03,1.406968219298787233e+02,3.923126705028435676e-03
1.409893148930363793e+02,-5.130811571968005823e-03,1.409893148930363793e+02,1.858777338071980825e-03,1.409893148930363793e+02,3.200672741585013342e-03
1.412822899688123357e+02,-5.126019870636133388e-03,1.412822899688123357e+02,1.806154811659328643e-03,1.412822899688123357e+02,2.775425806668111849e-03
1.415752650445882921e+02,-5.122340243491327327e-03,1.415752650445882921e+02,1.766699003627272141e-03,1.415752650445882921e+02,2.523993099387183362e-03
1.418682401203642485e+02,-5.119485454376916309e-03,1.418682401203642485e+02,1.737106224724727305e-03,1.418682401203642485e+02,2.379285806395678611e-03
1.421612142346610028e+02,-5.117242294686078635e-03,1.421612142346610028e+02,1.714900839794524824e-03,1.421612142346610028e+02,2.296817859693679569e-03
1.424541883489577572e+02,-5.115453195930953594e-03,1.424541883489577572e+02,1.698228790400492213e-03,1.424541883489577572e+02,2.249284300699704985e-03
1.440917565048988251e+02,-5.108878289707299673e-03,1.440917565048988251e+02,1.647232273440171757e-03,1.440917565048988251e+02,2.139815105511533744e-03
1.457293246608398931e+02,-5.105745212271682078e-03,1.457293246608398931e+02,1.638759354928296871e-03,1.457293246608398931e+02,2.152734463012362723e-03
1.473668928167809611e+02,-5.103479877728992094e-03,1.473668928167809611e+02,1.641091986896749556e-03,1.473668928167809611e+02,2.166920594724711449e-03
1.523587873957011709e+02,-5.095997474608465055e-03,1.523587873957011709e+02,1.640816294208604330e-03,1.523587873957011709e+02,2.161414674691956340e-03
1.573506819746213807e+02,-5.088586935045382245e-03,1.573506819746213807e+02,1.640918785435196156e-03,1.573506819746213807e+02,2.147576519733574319e-03
1.623425765535415906e+02,-5.081068628552553972e-03,1.623425765535415906e+02,1.639115509423795265e-03,1.623425765535415906e+02,2.134333728837652967e-03
1.748362202084632600e+02,-5.062357100402732971e-03,1.748362202084632600e+02,1.633529657599247075e-03,1.748362202084632600e+02,2.102002502408029626e-03
1.873298638633849009e+02,-5.043853452644725573e-03,1.873298638633849009e+02,1.627198105430601154e-03,1.873298638633849009e+02,2.072089432759975473e-03
1.889922441337384100e+02,-5.041407143339187227e-03,1.889922441337384100e+02,1.626304843776055394e-03,1.889922441337384100e+02,2.068512721080584781e-03
1.906546244040919191e+02,-5.038970721595945577e-03,1.906546244040919191e+02,1.625479084489985957e-03,1.906546244040919191e+02,2.064608358320547607e-03
1.923170046744454282e+02,-5.036541519474799396e-03,1.923170046744454282e+02,1.624686691086561427e-03,1.923170046744454282e+02,2.060626645221924798e-03
1.929676079117876384e+02,-5.399190363188902456e-03,1.929676079117876384e+02,1.741669176676575222e-03,1.929676079117876384e+02,2.446294908758669343e-03
